Time,AccX,AccY,AccZ,GyroX,GyroY,GyroZ,Capacitance
7266,-0.91,-0.27,0.02,-2.36,-0.46,0.03,480
7286,-0.91,-0.29,0.01,-2.63,-0.59,0.07,477
7306,-0.91,-0.29,0.02,-0.97,-0.67,0.13,477
7326,-0.92,-0.26,0.01,0.45,-0.2,0.5,477
7346,-0.92,-0.23,0.03,-0.81,-0.12,0.49,477
7366,-0.91,-0.25,0.04,-1.45,-0.38,-0.17,477
7387,-0.91,-0.26,0.03,-0.81,-0.49,-0.54,478
7406,-0.92,-0.25,0.04,-0.34,-0.23,-0.63,477
7427,-0.92,-0.25,0.04,-0.42,-0.21,-0.87,477
7446,-0.92,-0.23,0.03,-0.84,-0.52,-0.8,477
7467,-0.92,-0.25,0.04,-1.58,-0.52,-1.32,477
7486,-0.92,-0.26,0.02,-2.58,-0.53,-1.58,478
7506,-0.92,-0.27,0.03,-4.75,-1.17,-1.06,478
7526,-0.92,-0.28,0.02,-4.42,-1.57,-1.48,478
7546,-0.9,-0.27,0.02,-2.49,-0.82,-1.21,478
7566,-0.91,-0.27,0.02,-2.34,-1.48,-1.27,477
7586,-0.91,-0.28,0.03,-1.73,-0.76,-1.09,478
7606,-0.92,-0.28,0.03,0.16,-0.61,-1.59,478
7626,-0.92,-0.25,0.04,0.68,-0.65,-1.68,478
7646,-0.92,-0.23,0.05,-1.09,-1.11,-2.35,478
7666,-0.92,-0.2,0.05,-5.5,-1.4,-2.98,478
7686,-0.93,-0.27,0.04,-7.33,-0.93,-4.26,478
7706,-0.93,-0.27,0.0,-5.74,-0.76,-3.42,478
7727,-0.92,-0.27,0.01,-7.15,-0.3,-2.84,478
7746,-0.91,-0.3,0.01,-4.77,-0.04,-4.28,478
7767,-0.93,-0.28,0.03,0.1,1.12,-3.3,478
7786,-0.9,-0.28,0.04,1.77,1.65,-3.76,478
7806,-0.9,-0.28,0.04,2.65,1.06,-3.58,478
7826,-0.93,-0.26,0.03,1.81,1.42,-3.8,478
7846,-0.9,-0.3,-0.02,1.09,2.72,-4.09,478
7866,-0.91,-0.31,-0.0,0.3,0.41,-2.89,478
7886,-0.89,-0.33,0.02,0.44,-0.98,-3.36,478
7906,-0.9,-0.3,0.03,1.2,-1.66,-2.6,478
7926,-0.92,-0.28,0.03,1.31,-1.74,-2.87,478
7946,-0.91,-0.27,0.03,4.01,-1.11,-3.12,478
7966,-0.94,-0.17,0.03,1.42,-1.57,-3.38,478
7986,-0.95,-0.18,0.05,-5.91,-3.4,-5.32,478
8006,-0.88,-0.32,0.06,-7.94,-4.12,-6.14,478
8027,-0.88,-0.38,0.04,-1.96,-3.28,-5.9,478
8046,-0.88,-0.35,0.02,-0.0,-2.27,-4.72,478
8067,-0.92,-0.33,0.04,-2.39,-2.82,-4.17,478
8086,-0.9,-0.32,0.02,0.88,-2.98,-4.26,478
8107,-0.91,-0.27,0.01,5.97,-0.07,-3.96,478
8126,-0.94,-0.22,0.03,5.87,-0.79,-4.32,478
8146,-0.95,-0.08,0.07,3.97,-0.3,-8.89,479
8166,-0.96,-0.01,0.09,2.18,3.44,-13.25,480
8186,-0.98,-0.03,0.09,0.41,6.9,-20.26,480
8206,-0.98,-0.11,0.08,5.78,11.77,-28.78,480
8226,-1.04,0.04,0.16,17.52,16.29,-38.61,482
8246,-1.05,0.18,0.3,30.39,21.47,-53.54,484
8266,-0.99,0.28,0.37,28.3,30.31,-75.03,487
8286,-1.13,0.13,0.21,-4.45,31.56,-87.16,490
8306,-1.12,-0.3,-0.01,-32.65,25.67,-88.19,493
8326,-1.15,-0.5,0.04,-39.29,11.76,-67.39,493
8346,-1.03,-0.58,0.04,-46.52,-19.34,-25.91,493
8367,-0.69,-0.71,-0.08,-47.94,-37.66,9.19,493
8386,-0.63,-0.76,-0.05,-28.23,-53.43,47.36,493
8407,-0.72,-0.65,0.03,-10.05,-63.02,89.71,493
8426,-0.85,-0.49,0.13,6.16,-67.22,116.27,492
8446,-0.84,-0.36,0.09,4.21,-66.2,128.18,492
8466,-0.92,-0.35,0.1,2.94,-58.15,125.46,491
8486,-0.8,-0.35,0.15,3.98,-64.56,134.5,490
8506,-0.76,-0.37,0.03,7.48,-51.19,127.59,489
8526,-0.94,-0.3,0.12,20.71,-47.08,121.84,486
8546,-0.78,-0.13,0.15,24.5,-42.79,112.99,486
8566,-0.84,-0.02,0.09,30.21,-27.14,82.04,485
8586,-0.87,-0.03,0.21,32.15,-17.66,63.14,484
8606,-0.77,-0.07,0.16,37.83,-2.3,41.2,485
8626,-0.89,-0.0,0.12,33.58,4.78,18.36,485
8646,-0.85,0.04,0.17,4.06,0.03,4.88,485
8667,-0.81,0.02,0.16,-20.29,2.81,-15.12,485
8686,-0.88,-0.08,0.09,-41.59,2.54,-30.09,485
8707,-0.79,-0.18,0.09,-55.9,4.69,-39.3,485
8726,-0.81,-0.2,0.04,-59.24,15.36,-51.36,485
8747,-1.16,-0.26,0.27,-46.13,29.1,-41.51,485
8766,-1.52,-0.28,0.6,-15.32,19.59,-5.82,487
8786,-0.91,-0.07,0.12,-18.89,13.19,-45.77,488
8806,-1.01,-0.05,-0.15,-57.13,29.99,-58.26,487
8826,-0.7,-0.44,-0.2,-66.68,14.05,-27.9,485
8846,-0.73,-0.78,-0.03,-7.44,44.83,-34.06,486
8866,-0.93,-0.6,0.21,11.77,35.89,-25.35,486
8886,-0.85,-0.34,0.21,3.64,28.86,-17.03,486
8906,-0.85,-0.21,0.01,-12.13,30.22,-14.23,486
8926,-0.99,-0.43,-0.15,0.68,33.65,-15.73,485
8946,-0.93,-0.33,-0.08,22.65,30.41,-15.19,485
8966,-0.94,-0.2,-0.01,30.41,33.31,-15.91,486
8986,-1.0,-0.09,-0.0,23.72,30.11,-18.38,486
9007,-0.97,-0.18,-0.07,14.88,28.05,-23.18,485
9026,-0.93,-0.24,-0.04,25.28,31.22,-24.28,485
9047,-0.99,0.01,-0.1,28.48,28.05,-14.52,484
9066,-0.97,0.11,0.02,4.88,18.89,-18.31,484
9086,-0.91,-0.11,0.08,-17.16,17.28,-27.71,484
9106,-0.87,-0.29,0.03,-5.24,23.04,-30.0,484
9126,-0.92,-0.18,-0.04,1.05,23.02,-29.7,484
9146,-0.93,-0.25,-0.06,-10.03,19.56,-34.72,483
9166,-0.9,-0.41,-0.05,-7.68,20.89,-37.12,483
9186,-0.89,-0.31,-0.01,6.82,22.47,-34.31,483
9206,-0.93,-0.18,0.06,17.32,28.63,-40.14,483
9226,-0.91,-0.13,-0.01,21.8,30.93,-43.1,484
9246,-0.89,-0.07,-0.02,20.13,32.8,-47.15,484
9266,-0.94,-0.06,-0.0,18.24,34.22,-55.42,484
9286,-0.96,-0.06,-0.01,9.68,31.91,-58.69,484
9307,-0.92,-0.12,0.03,4.58,36.31,-68.9,485
9326,-0.93,-0.07,0.03,12.32,44.61,-77.06,487
9347,-1.09,0.04,0.04,20.8,55.88,-92.2,490
9366,-1.33,-0.18,0.23,29.97,72.92,-120.72,494
9387,-1.51,-0.54,0.54,71.55,92.09,-152.31,498
9406,-1.6,-0.51,0.55,109.19,102.08,-164.75,502
9426,-1.37,-0.41,0.22,92.99,86.78,-155.1,504
9446,-0.92,-0.3,-0.19,27.02,46.02,-124.31,504
9466,-0.51,-0.42,-0.46,-65.64,4.44,-95.83,503
9486,-0.42,-0.92,-0.46,-85.5,35.73,-90.69,503
9506,-0.53,-1.36,-0.29,-15.94,30.52,-63.51,503
9526,-0.48,-1.07,-0.31,51.92,9.33,6.53,504
9546,-0.42,-0.55,-0.13,74.8,-13.31,46.68,504
9566,-0.47,-0.4,-0.27,33.8,-44.27,94.68,504
9586,-0.45,-0.57,-0.24,0.36,-64.17,132.15,503
9606,-0.56,-0.74,-0.16,-4.36,-85.94,161.42,502
9626,-0.49,-0.76,-0.19,-2.55,-113.2,185.78,501
9647,-0.6,-0.66,-0.17,-4.62,-117.85,199.26,499
9666,-0.77,-0.51,-0.1,-27.58,-133.65,214.93,498
9687,-0.77,-0.48,-0.09,-59.79,-145.39,212.97,495
9706,-0.71,-0.6,-0.02,-63.85,-138.23,197.65,492
9726,-0.68,-0.72,0.08,-47.58,-129.86,190.82,489
9746,-0.69,-0.66,0.12,-6.97,-103.51,192.38,486
9766,-0.79,-0.43,-0.04,14.84,-87.6,182.56,483
9786,-0.96,-0.17,-0.01,29.05,-56.87,146.47,481
9806,-0.91,-0.02,0.27,22.21,-52.01,106.85,480
9826,-0.8,0.14,0.15,10.38,-21.24,67.13,480
9846,-0.96,0.22,0.09,-6.72,-7.48,14.67,480
9866,-0.87,0.1,0.11,-34.52,-4.44,-28.11,481
9886,-0.79,-0.07,-0.07,-67.84,9.88,-73.3,481
9906,-0.72,-0.34,-0.15,-89.06,25.06,-95.62,482
9926,-1.07,-0.57,0.33,-21.76,60.76,-52.92,482
9947,-1.55,-0.3,0.32,21.52,21.35,-7.25,486
9966,-0.97,-0.03,-0.05,-5.9,33.47,-70.4,487
9987,-0.75,-0.24,-0.06,-73.13,27.5,-72.16,486
10006,-0.6,-0.67,-0.13,-61.91,30.51,-39.35,485
10027,-0.81,-1.04,0.03,21.92,53.89,-35.93,486
10046,-0.88,-0.55,0.17,57.42,52.49,-31.07,486
10066,-0.98,-0.21,0.0,28.64,44.51,-21.93,487
10086,-0.83,-0.37,-0.16,8.84,40.22,-24.69,486
10106,-0.94,-0.51,-0.16,21.74,39.94,-20.03,485
10126,-0.94,-0.32,-0.09,33.86,34.72,-15.77,486
10146,-0.95,-0.19,-0.07,29.38,33.99,-15.87,486
10166,-0.96,-0.18,0.02,22.38,30.95,-17.21,486
10186,-0.95,-0.09,0.01,12.01,25.01,-16.09,485
10206,-0.99,-0.1,-0.02,4.48,24.89,-17.94,485
10226,-0.93,-0.23,-0.05,7.17,25.13,-21.91,484
10246,-0.89,-0.28,-0.03,16.12,27.31,-22.2,484
10266,-0.93,-0.21,0.01,22.04,28.96,-23.73,484
10287,-0.93,-0.12,-0.02,16.03,26.93,-25.97,483
10306,-0.92,-0.15,-0.04,8.91,26.51,-30.63,483
10327,-0.94,-0.28,-0.01,9.51,27.22,-35.58,483
10346,-0.93,-0.26,-0.01,13.64,27.18,-36.74,483
10366,-0.89,-0.19,-0.02,17.72,29.07,-39.0,483
10386,-0.93,-0.13,0.0,18.51,29.68,-44.09,483
10406,-0.93,-0.17,-0.04,16.32,28.95,-47.39,484
10426,-0.9,-0.16,-0.07,11.87,28.67,-50.26,484
10446,-0.92,-0.12,-0.08,2.59,27.93,-53.06,485
10466,-0.95,-0.14,-0.04,-0.29,30.69,-61.09,485
10486,-0.94,-0.07,-0.0,4.9,33.15,-67.61,487
10506,-0.97,-0.05,0.07,8.68,41.59,-82.98,489
10526,-1.12,-0.2,0.05,23.4,59.64,-108.43,492
10546,-1.38,-0.42,0.26,54.19,77.44,-134.92,496
10566,-1.67,-0.37,0.51,112.91,93.09,-155.22,501
10587,-1.51,-0.1,0.36,99.63,79.83,-153.16,504
10606,-1.23,-0.14,0.18,39.38,41.7,-129.5,505
10627,-0.95,-0.51,-0.24,-29.06,21.86,-117.19,505
10646,-0.63,-0.64,-0.38,-84.74,-14.36,-102.06,504
10667,-0.43,-0.85,-0.53,-92.43,8.96,-86.48,504
10686,-0.37,-1.2,-0.37,-47.56,19.38,-64.35,504
10706,-0.36,-1.09,-0.3,21.64,12.06,-19.38,504
10726,-0.37,-0.72,-0.16,55.69,-17.95,31.26,505
10746,-0.33,-0.55,-0.23,37.17,-50.72,96.64,504
10766,-0.28,-0.63,-0.25,19.35,-68.61,128.53,503
10786,-0.5,-0.65,-0.2,9.0,-83.24,161.39,502
10806,-0.55,-0.65,-0.2,-2.8,-113.94,185.94,501
10826,-0.51,-0.7,-0.16,-17.55,-127.13,201.37,500
10846,-0.64,-0.71,-0.05,-13.94,-136.11,214.78,498
10866,-0.7,-0.59,-0.01,-31.04,-147.2,227.22,496
10886,-0.66,-0.52,0.04,-56.36,-146.78,226.75,493
10906,-0.71,-0.57,0.12,-62.46,-138.91,217.08,489
10927,-0.83,-0.57,0.11,-43.2,-131.62,213.54,486
10946,-0.99,-0.64,0.08,-3.7,-96.78,177.43,483
10967,-0.94,-0.27,0.16,16.87,-84.2,156.47,481
10986,-0.83,0.12,0.08,16.41,-42.29,112.91,481
11006,-1.01,0.3,0.06,-1.49,-24.06,42.27,481
11026,-0.81,0.31,0.02,-24.95,-4.64,-7.53,481
11046,-0.73,0.06,-0.12,-50.03,20.32,-66.95,481
11066,-0.71,-0.31,-0.24,-69.03,41.86,-107.99,482
11086,-1.21,-0.59,0.56,-6.6,69.35,-51.35,481
11106,-1.59,-0.15,0.32,-5.91,2.34,1.66,486
11126,-0.88,-0.13,-0.12,-51.65,30.06,-83.87,485
11146,-0.65,-0.56,-0.07,-95.06,33.45,-81.64,486
11166,-0.53,-0.94,-0.1,-48.22,36.31,-34.96,485
11186,-0.87,-0.83,-0.0,34.04,56.28,-22.28,487
11206,-1.03,-0.22,0.07,32.0,45.76,-28.09,487
11227,-0.98,-0.06,-0.11,-9.04,33.88,-24.22,487
11246,-0.86,-0.28,-0.19,-23.59,29.57,-25.65,486
11267,-0.91,-0.49,-0.0,-3.52,36.84,-29.04,486
11286,-0.96,-0.36,-0.0,17.9,36.57,-26.63,486
11307,-0.91,-0.17,-0.06,11.45,32.93,-25.85,486
11326,-0.91,-0.23,-0.02,4.16,34.0,-28.83,486
11346,-0.96,-0.24,-0.01,9.86,32.7,-28.26,486
11366,-0.92,-0.21,-0.05,7.52,28.11,-22.03,486
11386,-0.84,-0.29,-0.01,1.05,25.16,-24.8,486
11406,-0.89,-0.32,-0.02,-1.76,26.61,-26.96,485
11426,-0.92,-0.3,-0.05,-2.72,22.11,-24.43,485
11446,-0.85,-0.31,-0.03,-2.78,22.23,-25.83,485
11466,-0.94,-0.26,0.0,0.87,23.02,-28.86,485
11486,-0.93,-0.23,0.01,3.19,23.94,-30.4,485
11506,-0.88,-0.23,-0.05,1.69,25.53,-31.85,485
11526,-0.88,-0.31,-0.04,6.27,28.37,-39.0,485
11546,-0.89,-0.3,-0.06,8.44,28.66,-37.91,485
11567,-0.88,-0.29,-0.09,2.93,27.42,-39.16,485
11586,-0.92,-0.3,-0.05,-2.1,26.93,-44.45,485
11607,-0.93,-0.33,0.03,5.95,29.38,-51.59,486
11626,-0.89,-0.3,0.02,22.3,37.85,-58.29,487
11646,-0.93,-0.2,0.02,32.58,46.64,-66.92,489
11666,-1.01,-0.19,0.1,43.34,58.2,-81.9,491
11686,-1.24,-0.11,0.11,60.9,73.68,-93.19,494
11706,-1.53,-0.13,0.15,67.42,77.22,-106.48,497
11726,-1.58,-0.36,0.29,65.66,65.64,-142.32,501
11746,-1.17,-0.49,0.43,80.03,74.84,-145.71,502
11766,-1.26,-0.47,0.32,102.38,83.65,-137.19,504
11786,-1.2,-0.26,-0.02,63.52,37.91,-103.71,504
11806,-0.66,-0.39,-0.37,-34.08,1.5,-90.8,504
11826,-0.54,-0.8,-0.36,-79.99,11.8,-87.99,503
11846,-0.52,-1.04,-0.47,-61.67,-2.94,-60.96,503
11867,-0.32,-0.82,-0.38,-20.26,-12.87,-21.93,503
11886,-0.1,-0.76,-0.39,7.14,-19.78,5.63,503
11907,-0.39,-0.63,-0.21,20.84,-19.54,58.24,504
11926,-0.41,-0.77,-0.16,28.51,-69.34,109.14,504
11947,-0.28,-0.74,-0.18,36.56,-70.85,143.81,504
11966,-0.47,-0.71,-0.1,39.92,-82.99,170.55,502
11986,-0.55,-0.61,-0.15,18.9,-103.11,194.93,501
12006,-0.64,-0.58,-0.07,-9.52,-113.8,207.51,499
12026,-0.8,-0.56,0.01,-30.78,-126.41,219.0,497
12046,-0.81,-0.54,0.03,-52.94,-141.88,225.07,495
12066,-0.72,-0.61,0.05,-67.04,-134.21,214.44,492
12086,-0.8,-0.6,0.08,-60.25,-123.75,204.61,488
12106,-0.88,-0.57,0.16,-23.97,-113.85,199.43,485
12126,-0.78,-0.55,0.04,8.29,-83.71,175.95,484
12146,-0.93,-0.29,0.01,42.39,-49.59,135.31,482
12166,-0.88,-0.01,0.2,42.33,-38.81,106.58,481
12186,-0.79,0.22,0.1,34.84,-7.65,59.77,481
12207,-0.91,0.26,0.09,12.56,3.77,5.37,481
12226,-0.79,0.11,0.06,-14.49,18.34,-37.09,482
12247,-0.77,-0.07,-0.08,-45.9,22.99,-81.15,482
12266,-0.73,-0.37,-0.06,-72.77,32.32,-96.83,482
12286,-1.14,-0.6,0.55,-19.67,54.22,-32.75,482
12306,-1.65,-0.29,0.49,10.18,17.76,-2.06,487
12326,-0.98,-0.08,-0.01,-21.21,33.8,-84.89,487
12346,-0.76,-0.39,-0.13,-66.23,32.43,-78.11,487
12366,-0.62,-0.7,-0.19,-27.01,30.44,-32.41,487
12386,-0.89,-0.56,-0.11,27.37,48.12,-26.02,487
12406,-0.92,-0.33,0.07,16.8,39.48,-32.54,487
12426,-0.92,-0.35,0.09,1.92,38.49,-28.66,488
12446,-0.87,-0.36,-0.13,-1.68,35.83,-28.58,487
12466,-0.92,-0.39,-0.16,13.98,40.57,-32.34,486
12486,-1.0,-0.18,-0.06,28.1,36.81,-23.85,487
12507,-0.95,-0.03,0.0,9.03,25.67,-25.03,487
12526,-0.91,-0.15,0.03,-14.54,25.06,-29.51,487
12547,-0.91,-0.28,0.0,-14.81,24.84,-32.4,487
12566,-0.91,-0.31,-0.05,-0.45,28.09,-29.91,487
12587,-0.91,-0.29,-0.01,10.61,29.53,-32.17,487
12606,-0.95,-0.28,-0.01,14.55,28.4,-32.83,487
12626,-0.88,-0.23,-0.08,3.71,20.34,-28.25,486
12646,-0.84,-0.35,-0.01,-7.33,18.32,-31.82,486
12666,-0.86,-0.44,0.05,-2.26,22.69,-31.06,486
12686,-0.91,-0.29,-0.03,6.62,25.09,-29.59,487
12706,-0.91,-0.16,-0.06,3.08,23.73,-32.0,486
12726,-0.93,-0.13,-0.07,-3.79,23.45,-36.78,487
12746,-0.94,-0.1,-0.07,-12.87,19.8,-37.62,487
12766,-0.85,-0.27,-0.03,-13.97,21.64,-46.81,487
12786,-0.87,-0.39,-0.01,-6.58,24.66,-50.55,487
12806,-0.85,-0.33,-0.02,-4.34,24.09,-50.0,488
12826,-0.9,-0.26,-0.03,-2.75,26.54,-55.19,488
12847,-0.93,-0.35,-0.06,7.49,33.56,-66.64,489
12866,-0.92,-0.41,-0.04,13.72,37.88,-68.86,491
12887,-0.95,-0.38,0.04,25.72,50.75,-78.69,493
12906,-1.12,-0.36,0.19,42.73,63.99,-88.6,495
12926,-1.42,-0.16,0.23,71.72,78.02,-103.71,498
12946,-1.83,-0.12,0.33,83.84,82.8,-128.28,502
12966,-1.64,-0.29,0.38,85.92,76.47,-156.61,504
12986,-1.44,-0.39,0.32,87.84,77.44,-146.0,506
13006,-1.16,-0.3,-0.11,43.23,40.54,-118.34,506
13026,-0.73,-0.48,-0.43,-40.66,3.22,-105.29,505
13046,-0.53,-0.74,-0.35,-87.74,8.31,-79.8,505
13066,-0.4,-1.06,-0.53,-73.13,-5.88,-52.66,505
13086,-0.1,-1.16,-0.47,-27.15,-7.74,-7.76,504
13106,0.04,-0.94,-0.3,22.21,-13.57,25.37,504
13126,-0.32,-0.68,-0.12,35.34,-27.39,75.95,505
13147,-0.17,-0.72,-0.25,31.43,-72.18,126.18,504
13166,-0.13,-0.68,-0.26,30.09,-77.37,155.98,503
13187,-0.32,-0.69,-0.19,28.12,-94.56,186.71,502
13206,-0.28,-0.72,-0.24,17.98,-108.85,206.26,501
13227,-0.44,-0.63,-0.16,-5.55,-118.21,221.05,499
13246,-0.62,-0.55,0.03,-18.16,-132.24,236.18,497
13266,-0.72,-0.57,0.0,-43.62,-141.95,238.78,495
13286,-0.78,-0.5,0.03,-70.28,-142.23,229.31,492
13306,-1.05,-0.5,0.05,-71.26,-129.95,214.97,489
13326,-1.05,-0.49,0.19,-39.38,-126.73,203.28,485
13346,-0.79,-0.55,0.21,23.9,-66.85,152.68,482
13366,-0.89,-0.18,0.09,67.75,-26.55,119.78,481
13386,-1.01,0.3,0.09,55.29,-11.07,82.96,480
13406,-0.94,0.42,0.18,15.0,-2.67,26.58,481
13426,-0.88,0.23,0.03,-31.67,5.09,-24.51,480
13446,-0.82,0.03,-0.01,-67.15,15.79,-67.82,481
13466,-0.74,-0.4,-0.08,-81.49,37.45,-105.85,481
13487,-1.09,-0.79,0.54,-13.23,53.01,-60.34,481
13506,-1.29,-0.39,0.46,44.3,38.51,-11.76,486
13527,-1.12,-0.01,-0.12,20.93,47.65,-80.06,487
13546,-0.82,-0.14,-0.04,-45.64,27.79,-75.06,487
13566,-0.61,-0.57,-0.12,-37.12,35.02,-42.69,487
13586,-1.0,-0.48,-0.07,-0.1,40.81,-37.35,488
13606,-0.84,-0.34,0.05,-4.51,35.56,-44.25,488
13626,-0.88,-0.49,0.04,4.67,43.33,-40.03,489
13646,-0.83,-0.41,-0.12,10.97,41.44,-32.25,489
13666,-0.89,-0.47,-0.12,19.6,46.72,-37.36,488
13686,-0.96,-0.39,-0.13,31.4,40.03,-29.1,489
13706,-0.9,-0.29,-0.09,28.0,36.12,-28.34,488
13726,-0.9,-0.39,0.01,23.64,34.87,-32.52,488
13746,-0.91,-0.44,0.0,24.29,31.22,-28.26,488
13766,-0.88,-0.4,-0.09,29.72,35.85,-27.94,488
13787,-0.93,-0.35,-0.08,34.91,31.15,-22.52,488
13806,-0.89,-0.28,-0.06,35.8,28.17,-20.32,487
13827,-0.9,-0.19,-0.06,29.13,26.03,-17.93,487
13846,-0.95,-0.1,-0.06,12.61,20.03,-20.6,486
13867,-0.95,-0.08,-0.05,-6.6,15.38,-25.39,486
13886,-0.93,-0.08,-0.04,-16.97,15.02,-29.82,486
13906,-0.96,-0.12,0.01,-20.81,14.05,-35.73,486
13926,-0.93,-0.11,-0.02,-25.74,11.22,-38.74,486
13946,-0.89,-0.13,-0.02,-29.44,12.34,-44.35,486
13966,-0.87,-0.25,0.03,-28.34,13.27,-53.97,487
13986,-0.88,-0.34,-0.0,-22.07,16.55,-56.78,487
14006,-0.9,-0.32,-0.08,-18.77,21.31,-56.16,488
14026,-0.85,-0.31,-0.04,-16.72,21.6,-61.94,488
14046,-0.94,-0.29,0.04,-9.97,33.09,-69.27,490
14066,-1.01,-0.35,0.11,-1.71,39.65,-84.31,492
14086,-1.06,-0.36,0.16,17.29,54.03,-97.61,495
14106,-1.29,-0.14,0.19,51.28,72.96,-107.77,499
14127,-1.89,-0.04,0.43,93.45,96.54,-125.82,503
14146,-1.89,-0.49,0.28,108.0,93.68,-178.09,506
14167,-1.02,-0.51,0.13,84.67,66.31,-154.03,506
14186,-0.77,-0.63,-0.19,28.0,42.38,-116.89,505
14206,-0.5,-0.67,-0.44,-37.07,5.93,-91.97,504
14226,-0.58,-0.73,-0.53,-61.26,4.46,-68.11,503
14246,-0.44,-0.88,-0.46,-51.85,-6.3,-44.11,503
14266,-0.31,-0.95,-0.37,-35.12,-20.15,-14.26,504
14286,-0.11,-0.92,-0.23,4.03,-34.93,33.16,504
14306,-0.33,-0.69,-0.09,12.13,-57.98,83.6,504
14326,-0.28,-0.68,-0.21,9.13,-93.78,130.52,504
14346,-0.35,-0.72,-0.17,8.64,-93.56,161.07,503
14366,-0.45,-0.83,-0.11,17.13,-116.87,178.56,503
14386,-0.39,-0.73,-0.09,7.9,-130.65,198.71,501
14406,-0.48,-0.65,0.02,-11.49,-139.08,216.27,500
14427,-0.58,-0.64,0.05,-25.47,-145.36,229.86,497
14446,-0.64,-0.68,0.11,-34.29,-145.94,227.57,495
14467,-0.79,-0.63,0.11,-36.78,-139.39,222.32,491
14486,-1.06,-0.44,0.15,-29.15,-125.83,221.49,488
14507,-0.99,-0.39,0.12,-3.47,-107.31,192.18,484
14526,-0.94,-0.25,0.06,18.12,-73.49,153.84,481
14546,-0.88,0.07,0.16,28.44,-47.1,118.93,480
14566,-0.79,0.26,0.08,23.61,-18.93,57.88,480
14586,-0.91,0.3,0.19,-1.52,-1.83,6.46,480
14606,-0.82,0.2,0.03,-35.35,3.3,-34.63,480
14626,-0.75,-0.04,-0.14,-68.49,17.59,-78.55,480
14646,-0.54,-0.68,-0.13,-77.29,29.39,-112.71,480
14666,-0.74,-0.92,0.26,-3.36,57.89,-69.47,479
14686,-1.5,-0.28,0.66,54.59,52.81,9.46,484
14706,-1.54,0.17,0.14,0.01,18.12,-32.17,487
14726,-0.84,-0.19,-0.13,-62.08,35.35,-80.05,488
14746,-0.6,-0.7,-0.11,-48.84,34.95,-73.07,487
14767,-0.76,-0.63,-0.09,13.34,47.76,-12.81,486
14786,-1.03,-0.27,0.03,32.35,41.41,-22.63,487
14807,-0.93,-0.02,0.07,-2.0,37.21,-30.08,487
14826,-0.99,-0.11,-0.03,-40.37,22.28,-21.54,487
14846,-0.8,-0.49,-0.07,-37.13,24.7,-33.62,486
14866,-0.86,-0.68,0.04,6.82,41.31,-33.71,486
14886,-0.99,-0.22,-0.08,28.16,34.34,-18.78,487
14906,-0.9,-0.02,-0.07,7.92,28.31,-24.17,487
14926,-0.96,-0.28,-0.01,-6.78,28.08,-31.79,487
14946,-0.93,-0.37,-0.06,-3.06,22.84,-24.6,487
14966,-0.82,-0.4,-0.07,7.35,26.69,-25.03,486
14986,-0.94,-0.28,-0.0,7.13,24.23,-20.03,486
15006,-0.92,-0.2,-0.01,-7.1,18.63,-21.22,486
15026,-0.87,-0.3,-0.06,-19.01,15.44,-22.63,486
15046,-0.85,-0.42,0.03,-15.42,16.26,-23.5,486
15067,-0.91,-0.39,0.07,4.24,24.43,-25.77,486
15086,-0.93,-0.14,0.01,10.03,23.39,-23.7,486
15107,-0.95,-0.05,0.04,0.45,23.39,-32.92,486
15126,-0.97,-0.09,0.08,1.11,25.7,-42.8,487
15147,-0.95,-0.13,0.04,4.65,29.44,-47.91,487
15166,-0.87,-0.15,0.03,3.83,32.75,-55.82,487
15186,-0.93,-0.21,0.03,4.76,37.57,-63.9,488
15206,-0.89,-0.24,0.0,8.32,41.28,-67.39,490
15226,-0.89,-0.27,0.07,15.43,48.64,-77.25,491
15246,-1.09,-0.24,0.18,31.35,64.29,-89.83,494
15266,-1.58,-0.16,0.48,73.45,81.22,-115.94,497
15286,-2.0,-0.25,0.6,113.2,92.22,-149.13,503
15306,-1.63,-0.04,0.29,83.68,56.54,-168.28,506
15326,-1.1,-0.23,-0.2,10.88,56.14,-136.23,506
15346,-0.85,-0.53,-0.61,-82.69,-1.19,-113.67,504
15366,-0.5,-0.56,-0.52,-128.34,-39.14,-75.71,502
15386,-0.22,-1.18,-0.38,-98.69,-11.92,-50.26,502
15407,-0.08,-1.41,-0.23,1.78,-33.4,8.23,502
15426,-0.1,-0.88,-0.07,63.02,-50.94,75.69,502
15447,-0.03,-0.53,-0.28,57.17,-86.2,144.79,502
15466,-0.04,-0.46,-0.26,22.0,-93.17,179.34,500
15486,-0.27,-0.71,-0.25,2.58,-121.85,209.74,499
15506,-0.44,-0.67,-0.22,-31.78,-149.36,242.17,497
15526,-0.67,-0.79,-0.13,-45.84,-156.38,240.09,495
15546,-0.93,-0.53,-0.09,-69.59,-150.41,233.14,493
15566,-1.12,-0.51,0.01,-80.49,-150.91,191.48,490
15586,-0.91,-0.52,0.01,-52.6,-123.19,161.95,487
15606,-0.75,-0.56,0.08,-9.45,-71.13,115.78,486
15626,-0.62,-0.36,0.03,26.61,-21.88,82.93,485
15646,-0.79,-0.06,-0.21,39.58,14.54,30.09,486
15666,-0.88,0.12,0.02,-3.41,8.49,-5.47,485
15686,-0.56,-0.03,-0.15,-62.07,18.29,-49.33,484
15707,-0.93,-0.37,0.48,-69.32,21.48,-49.06,481
15726,-1.89,-0.3,0.88,-44.92,-2.35,52.7,484
15747,-1.0,-0.32,0.02,-30.68,6.8,-51.58,486
15766,-0.8,-0.35,-0.21,-65.81,25.15,-48.75,486
15787,-0.59,-0.42,-0.2,-43.33,11.7,7.2,483
15806,-0.95,-0.51,0.05,3.16,33.89,-2.74,485
15826,-1.2,-0.07,0.07,-12.68,12.76,-14.67,487
15846,-0.88,-0.28,-0.1,-31.3,19.62,-17.01,486
15866,-0.82,-0.55,-0.06,10.07,26.12,-12.23,487
15886,-1.03,-0.22,0.08,33.86,24.44,-10.28,487
15906,-1.0,0.07,0.01,12.53,21.56,-10.78,487
15926,-0.93,-0.16,-0.03,-20.81,11.12,-10.84,486
15946,-0.84,-0.48,0.08,-24.57,8.6,-12.72,486
15966,-0.92,-0.48,0.05,-13.78,7.56,-7.97,487
15986,-0.88,-0.31,-0.07,-13.36,4.78,-5.3,487
16006,-0.89,-0.32,0.01,-5.23,9.09,-7.53,486
16026,-0.97,-0.27,0.05,7.2,9.18,-5.58,487
16047,-0.96,-0.09,-0.01,1.55,6.4,-3.88,487
16066,-0.95,-0.13,0.01,-9.91,2.95,-6.71,486
16087,-0.85,-0.38,0.13,-3.35,4.46,-9.41,487
16106,-0.97,-0.29,-0.06,1.49,6.67,-6.67,487
16126,-0.94,-0.27,-0.17,-5.81,-3.2,-5.12,486
16146,-0.89,-0.25,-0.0,-6.34,-3.14,-5.94,486
16166,-0.97,-0.24,0.1,-17.81,-11.36,-2.17,487
16186,-0.87,-0.31,0.04,-27.97,-10.94,-3.47,486
16206,-0.85,-0.39,0.1,-14.66,-5.68,-3.96,486
16226,-0.9,-0.32,0.13,7.42,0.66,-1.74,486
16246,-0.96,-0.1,0.05,7.35,1.18,0.27,486
16266,-0.95,-0.09,0.05,-0.02,-0.04,-2.34,486
