Time,AccX,AccY,AccZ,GyroX,GyroY,GyroZ,Capacitance

7266,-0.9,-0.26,0.07,-1.92,-0.17,-1.22,474

7286,-0.88,-0.27,0.09,-1.87,0.13,-1.32,472

7306,-0.9,-0.26,0.11,-2.67,-0.17,-3.16,472

7326,-0.97,-0.21,0.13,-9.42,-7.29,-1.53,472

7346,-0.92,-0.23,0.08,-16.81,-5.9,0.41,472

7366,-0.92,-0.25,0.06,-15.83,-2.97,-6.23,473

7387,-0.95,-0.21,-0.0,-15.08,-0.57,-1.71,473

7406,-0.9,-0.33,-0.01,-12.52,1.0,-1.52,473

7427,-0.91,-0.36,0.03,-1.66,3.98,-3.3,473

7446,-0.91,-0.27,0.04,0.45,4.12,0.35,473

7467,-0.9,-0.3,0.05,-3.26,4.39,-8.99,473

7486,-0.9,-0.34,0.04,-2.74,4.52,-7.55,473

7506,-0.91,-0.29,0.04,-2.26,1.84,-3.45,473

7526,-0.9,-0.28,0.04,-5.22,0.55,-7.38,474

7546,-0.93,-0.34,0.04,-3.31,3.03,-0.38,474

7566,-0.89,-0.33,0.03,0.35,2.0,-7.15,474

7586,-0.91,-0.31,0.04,0.68,2.61,-8.79,474

7606,-0.9,-0.31,0.03,-0.61,2.21,-1.13,474

7626,-0.92,-0.41,0.02,2.49,3.8,-5.17,474

7646,-0.87,-0.36,0.02,7.12,3.48,-4.65,474

7666,-0.91,-0.28,0.03,6.86,3.31,-7.95,474

7686,-0.92,-0.26,0.04,2.87,1.81,-5.49,474

7706,-0.92,-0.26,0.05,-0.56,-0.51,-4.05,474

7727,-0.91,-0.28,0.04,-0.39,-0.1,-6.8,474

7746,-0.9,-0.29,0.04,-3.17,-1.07,1.36,474

7767,-0.89,-0.38,0.06,-5.55,-1.55,-7.18,474

7786,-0.88,-0.38,0.05,-0.71,-0.84,-6.24,474

7806,-0.88,-0.31,0.01,-0.61,-0.11,-3.96,474

7826,-0.9,-0.3,0.01,-4.24,-0.95,-0.96,474

7846,-0.92,-0.31,0.01,-2.16,-0.13,-3.2,474

7866,-0.88,-0.4,0.01,4.95,1.25,-3.29,474

7886,-0.86,-0.42,0.03,12.55,1.97,-2.79,474

7906,-0.88,-0.37,0.03,12.37,1.22,7.61,475

7926,-0.91,-0.33,0.07,8.02,-3.32,6.36,475

7946,-0.86,-0.31,0.04,7.39,-0.6,-1.27,475

7966,-0.92,-0.32,0.04,8.87,2.32,1.03,475

7986,-0.93,-0.24,0.05,11.79,3.29,-0.96,476

8006,-0.94,-0.16,0.07,15.79,6.47,-12.6,476

8027,-1.03,-0.08,0.14,24.11,12.26,-17.36,477

8046,-1.02,-0.0,0.21,34.48,15.92,-25.93,478

8067,-1.07,0.16,0.3,43.7,26.36,-38.72,480

8086,-1.18,0.29,0.25,21.04,20.79,-51.31,484

8107,-1.02,0.16,0.2,-18.99,13.63,-57.65,486

8126,-0.9,-0.53,0.01,-43.6,14.41,-68.98,486

8146,-0.88,-0.87,0.01,-18.44,10.09,-41.97,486

8166,-0.88,-0.66,0.11,13.65,-12.68,19.65,487

8186,-0.92,-0.27,0.09,6.74,-27.87,47.06,488

8206,-0.95,-0.27,0.11,-12.56,-43.32,67.86,488

8226,-0.84,-0.39,0.1,-14.39,-49.35,94.58,488

8246,-0.88,-0.44,0.17,1.58,-51.41,99.3,487

8266,-0.82,-0.36,0.13,11.81,-52.75,116.72,487

8286,-0.84,-0.26,0.15,13.13,-44.78,120.23,486

8306,-0.85,-0.32,0.12,16.61,-44.43,106.25,485

8326,-0.83,-0.37,0.12,25.36,-39.03,101.45,484

8346,-0.8,-0.22,0.15,37.88,-31.47,105.02,484

8367,-0.85,-0.08,0.14,36.14,-19.87,90.7,484

8386,-0.88,-0.04,0.11,23.94,-15.97,54.76,484

8407,-0.9,-0.09,0.17,16.45,-8.35,40.53,484

8426,-0.89,-0.11,0.21,8.14,-6.57,26.81,484

8446,-0.92,0.02,0.13,-16.19,-8.45,9.15,484

8466,-0.93,0.11,0.09,-57.11,-15.44,-15.5,484

8486,-0.81,-0.18,0.04,-89.39,-15.59,-18.87,483

8506,-0.72,-0.42,0.04,-83.51,-1.93,-35.76,483

8526,-0.79,-0.41,-0.01,-61.16,17.17,-36.71,483

8546,-1.05,-0.46,0.34,-37.07,21.19,-26.15,483

8566,-1.24,-0.56,0.55,-6.71,19.25,-20.53,485

8586,-0.84,-0.48,0.09,19.82,40.13,-51.46,485

8606,-0.99,-0.34,-0.06,22.48,42.19,-29.62,484

8626,-0.91,-0.19,-0.24,33.01,44.71,-26.64,484

8646,-1.05,-0.01,-0.03,18.0,33.98,-30.13,483

8667,-0.95,0.02,0.15,-15.29,22.06,-30.52,483

8686,-0.84,-0.18,0.19,-33.03,20.73,-32.98,484

8707,-0.84,-0.31,0.15,-23.17,25.65,-37.38,483

8726,-0.97,-0.29,-0.03,-9.8,28.96,-43.76,484

8747,-0.94,-0.28,-0.09,-8.21,24.04,-29.44,484

8766,-0.84,-0.32,-0.04,-7.02,23.26,-30.27,484

8786,-0.94,-0.32,-0.02,-7.39,23.13,-25.45,484

8806,-0.9,-0.41,-0.1,-9.42,21.51,-20.12,484

8826,-0.85,-0.45,-0.09,0.84,21.65,-12.83,484

8846,-0.97,-0.31,-0.03,2.22,19.45,-25.36,483

8866,-0.86,-0.3,-0.04,-13.13,10.09,-21.3,484

8886,-0.83,-0.45,-0.02,-22.9,9.43,-25.11,483

8906,-0.85,-0.44,0.05,-19.54,8.21,-6.56,483

8926,-0.9,-0.31,0.07,-15.43,7.75,-6.85,483

8946,-0.89,-0.22,-0.03,-12.55,12.58,-10.5,483

8966,-0.93,-0.18,-0.01,-6.65,14.45,-10.95,482

8986,-0.97,-0.11,0.02,-1.66,16.41,-16.01,482

9007,-0.95,-0.08,0.03,-1.98,19.46,-26.27,481

9026,-0.95,-0.15,0.11,-6.27,19.45,-34.76,481

9047,-0.87,-0.16,0.04,-3.57,24.84,-40.43,481

9066,-0.93,-0.16,-0.02,2.77,30.48,-39.87,481

9086,-0.92,-0.13,-0.01,7.91,33.32,-56.34,482

9106,-0.91,-0.04,0.0,11.21,37.23,-61.34,483

9126,-0.92,-0.05,0.1,7.26,37.6,-76.62,484

9146,-0.81,-0.32,0.15,11.94,44.04,-81.39,486

9166,-0.92,-0.41,0.04,39.42,66.35,-116.32,489

9186,-1.25,-0.65,0.16,72.86,89.68,-120.08,493

9206,-1.76,-0.56,0.38,131.53,112.59,-134.32,498

9226,-1.73,-0.15,0.55,154.9,103.57,-127.71,501

9246,-1.23,-0.03,0.21,73.21,86.26,-133.62,502

9266,-0.88,-0.43,-0.32,-20.59,39.43,-118.01,501

9286,-0.53,-0.55,-0.62,-97.1,-0.11,-83.06,499

9307,-0.44,-1.06,-0.3,-75.31,35.11,-71.91,499

9326,-0.66,-1.35,-0.12,-8.15,13.83,-30.25,500

9347,-0.4,-0.83,-0.1,43.97,-12.77,26.91,500

9366,-0.41,-0.54,-0.2,33.67,-25.09,68.38,501

9387,-0.4,-0.56,-0.16,10.42,-56.64,108.39,501

9406,-0.39,-0.74,-0.13,8.6,-77.09,149.98,500

9426,-0.41,-0.83,-0.15,20.83,-96.92,169.46,499

9446,-0.47,-0.79,-0.14,32.03,-117.94,194.81,498

9466,-0.61,-0.66,-0.08,24.31,-127.16,206.1,496

9486,-0.76,-0.56,0.04,-5.1,-142.31,216.89,494

9506,-0.75,-0.45,0.23,-36.09,-151.79,231.57,491

9526,-0.66,-0.35,0.21,-57.54,-133.62,223.76,487

9546,-0.87,-0.51,0.07,-38.3,-102.08,194.02,484

9566,-1.01,-0.64,0.1,4.17,-90.05,163.01,481

9586,-0.75,-0.18,-0.1,29.99,-67.42,156.72,479

9606,-0.98,-0.02,0.11,39.47,-37.0,107.27,479

9626,-0.85,0.14,0.24,23.12,-21.68,72.19,478

9647,-0.72,0.23,-0.03,13.06,4.27,3.16,479

9666,-0.91,0.17,0.04,-14.52,12.15,-29.7,479

9687,-0.75,0.04,-0.04,-45.0,21.72,-66.86,479

9706,-0.7,-0.36,-0.15,-59.17,41.48,-105.19,480

9726,-1.51,-0.38,0.61,-25.98,54.71,-22.65,480

9746,-1.55,0.01,0.4,-55.23,-26.8,2.55,485

9766,-0.8,-0.27,-0.22,-87.4,31.0,-78.64,484

9786,-0.75,-0.73,-0.09,-94.94,26.73,-90.47,483

9806,-0.42,-0.89,-0.1,-26.24,33.65,-27.8,482

9826,-0.97,-0.64,0.04,32.69,52.38,-29.47,485

9846,-0.95,-0.14,0.09,6.4,36.47,-12.49,484

9866,-0.94,-0.18,-0.04,-31.87,30.85,-18.79,483

9886,-0.85,-0.45,-0.21,-33.07,29.32,-22.67,483

9906,-0.94,-0.56,-0.09,-12.67,29.28,-18.73,482

9926,-0.93,-0.28,-0.01,-5.07,22.73,-21.97,482

9947,-0.88,-0.25,0.03,-15.36,23.31,-21.26,484

9966,-0.89,-0.32,0.09,-19.43,19.8,-19.78,483

9987,-0.89,-0.27,-0.03,-11.63,24.13,-24.03,483

10006,-0.97,-0.17,-0.03,-6.74,23.69,-10.93,482

10027,-0.89,-0.17,0.07,-10.41,22.32,-23.61,482

10046,-0.88,-0.15,0.14,-13.6,26.27,-28.54,482

10066,-0.92,-0.14,0.01,-13.55,29.69,-26.11,482

10086,-0.93,-0.21,-0.01,-12.33,28.0,-36.06,482

10106,-0.86,-0.26,0.03,-8.59,31.02,-37.03,482

10126,-0.93,-0.22,0.08,-9.9,30.29,-38.41,482

10146,-0.9,-0.18,-0.02,-10.21,34.55,-51.59,483

10166,-0.88,-0.24,-0.12,-5.89,39.16,-51.35,483

10186,-0.93,-0.27,-0.02,6.78,48.0,-48.76,483

10206,-0.89,-0.33,0.1,28.87,49.74,-78.66,484

10226,-0.81,-0.58,0.34,55.53,60.68,-90.69,486

10246,-0.89,-0.39,0.19,86.6,89.51,-94.47,489

10266,-1.26,-0.37,0.29,119.82,111.31,-111.77,493

10287,-1.98,-0.38,0.43,160.28,134.79,-134.85,497

10306,-2.0,-0.23,0.53,165.77,108.65,-151.29,500

10327,-1.33,-0.08,0.36,122.8,102.56,-166.3,501

10346,-1.17,-0.2,-0.18,63.06,79.81,-130.7,501

10366,-0.79,-0.19,-0.52,-60.87,0.07,-97.37,500

10386,-0.49,-0.51,-0.6,-137.14,-14.05,-78.9,500

10406,-0.45,-1.14,-0.5,-106.23,-13.77,-62.14,500

10426,-0.35,-1.23,-0.38,-21.55,-39.24,5.68,501

10446,-0.12,-0.89,-0.11,53.68,-45.81,68.76,502

10466,-0.2,-0.62,-0.34,58.8,-70.11,117.23,502

10486,-0.13,-0.51,-0.27,41.79,-78.52,157.1,501

10506,-0.34,-0.74,-0.22,32.17,-94.49,189.66,500

10526,-0.38,-0.82,-0.19,26.31,-115.81,223.95,498

10546,-0.52,-0.68,-0.1,22.0,-121.15,237.89,496

10566,-0.73,-0.47,0.03,-10.09,-127.01,235.51,494

10587,-0.75,-0.48,0.04,-60.96,-129.12,234.93,490

10606,-0.77,-0.5,0.06,-74.27,-134.42,211.1,487

10627,-0.88,-0.63,-0.07,-39.86,-111.88,192.32,483

10646,-1.13,-0.64,0.19,2.14,-108.28,177.93,480

10667,-0.7,-0.26,0.22,31.04,-61.48,143.7,478

10686,-0.87,-0.0,0.1,48.26,-20.17,91.77,477

10706,-1.01,0.22,0.15,34.35,-14.43,69.48,477

10726,-0.92,0.34,0.13,-4.81,-3.21,3.69,478

10746,-0.89,0.18,-0.0,-51.14,5.11,-40.36,479

10766,-0.78,-0.01,-0.06,-89.02,5.02,-78.47,479

10786,-0.61,-0.54,-0.15,-97.17,28.81,-104.54,480

10806,-1.06,-0.77,0.43,-25.68,52.7,-41.19,480

10826,-1.59,-0.29,0.52,8.51,2.26,21.65,484

10846,-1.01,0.15,0.09,-27.65,23.49,-71.03,484

10866,-0.82,-0.29,-0.11,-92.36,25.14,-74.07,483

10886,-0.55,-0.77,-0.06,-54.88,24.3,-39.16,482

10906,-0.78,-0.58,-0.0,19.73,50.99,-16.59,483

10927,-1.09,-0.19,0.06,14.05,36.74,-30.43,484

10946,-0.95,-0.2,-0.07,-12.53,31.8,-23.64,484

10967,-0.91,-0.3,-0.18,-18.53,30.19,-32.39,483

10986,-0.92,-0.37,-0.14,-10.09,29.32,-18.14,482

11006,-0.98,-0.27,0.0,-1.54,23.11,-17.99,483

11026,-0.89,-0.2,0.04,-12.59,19.94,-27.06,483

11046,-0.9,-0.24,0.02,-27.43,16.27,-27.71,483

11066,-0.86,-0.38,0.01,-20.13,22.07,-30.5,483

11086,-0.9,-0.36,-0.02,-6.73,21.68,-17.25,483

11106,-0.84,-0.3,0.08,-6.1,21.13,-29.88,483

11126,-0.92,-0.23,0.11,-9.6,21.61,-23.43,483

11146,-0.95,-0.19,0.04,-13.58,19.51,-30.58,483

11166,-0.86,-0.24,-0.0,-14.53,20.47,-21.77,482

11186,-0.92,-0.24,0.02,-7.89,25.58,-25.35,482

11206,-0.93,-0.18,0.02,-6.96,24.53,-26.61,482

11227,-0.93,-0.23,-0.01,-11.0,24.06,-39.87,482

11246,-0.88,-0.32,-0.03,-7.63,26.33,-34.67,482

11267,-0.88,-0.24,0.03,7.35,32.7,-49.84,482

11286,-0.92,-0.05,0.04,14.03,37.94,-45.56,482

11307,-0.96,0.01,0.02,8.35,38.32,-55.57,483

11326,-0.9,-0.03,0.08,4.02,41.55,-70.05,483

11346,-0.92,-0.16,0.06,18.89,50.78,-99.74,485

11366,-1.08,-0.45,0.24,53.06,70.93,-128.0,489

11386,-1.44,-0.6,0.29,96.9,102.59,-135.57,494

11406,-1.71,-0.45,0.44,154.71,118.07,-149.14,498

11426,-1.55,-0.14,0.34,147.9,109.84,-146.26,500

11446,-1.22,-0.02,0.06,74.63,81.26,-123.22,501

11466,-0.83,-0.34,-0.26,-44.76,16.33,-101.05,501

11486,-0.37,-0.68,-0.59,-100.44,17.97,-92.86,500

11506,-0.49,-1.24,-0.26,-63.94,50.01,-65.61,500

11526,-0.7,-1.34,-0.15,8.37,16.78,-19.14,501

11546,-0.36,-0.78,-0.14,52.37,-9.62,37.76,501

11567,-0.24,-0.53,-0.16,46.75,-23.94,87.78,501

11586,-0.36,-0.56,-0.19,25.68,-46.25,122.03,500

11607,-0.37,-0.74,-0.19,16.03,-66.02,162.55,500

11626,-0.38,-0.78,-0.13,21.67,-88.87,188.73,499

11646,-0.41,-0.72,-0.12,26.71,-106.95,206.08,498

11666,-0.58,-0.64,-0.06,15.39,-116.68,223.14,496

11686,-0.76,-0.56,0.02,-17.45,-132.66,231.24,494

11706,-0.78,-0.5,0.13,-51.28,-142.98,233.64,491

11726,-0.77,-0.39,0.11,-70.7,-135.09,237.62,487

11746,-0.9,-0.57,0.01,-38.85,-114.31,182.72,484

11766,-1.06,-0.59,0.15,14.13,-87.48,167.86,481

11786,-0.76,-0.01,0.04,36.34,-55.39,150.85,479

11806,-1.0,0.27,0.13,32.86,-20.69,83.39,479

11826,-0.86,0.31,0.15,6.63,-11.52,32.26,479

11846,-0.82,0.26,0.08,-22.67,6.59,-17.42,479

11867,-0.82,0.14,-0.01,-65.68,10.1,-71.15,479

11886,-0.73,-0.27,-0.15,-90.88,29.74,-95.91,480

11907,-0.93,-0.74,0.32,-36.52,54.36,-83.54,480

11926,-1.66,-0.34,0.6,1.58,15.11,18.13,483

11947,-1.05,0.09,-0.04,-35.97,18.74,-71.02,485

11966,-0.78,-0.34,-0.15,-91.25,35.08,-90.75,484

11986,-0.53,-0.86,-0.1,-71.89,17.63,-57.14,483

12006,-0.57,-0.97,-0.03,26.25,60.9,-26.04,484

12026,-1.02,-0.48,0.12,64.78,61.45,-26.85,486

12046,-1.07,-0.12,0.04,35.97,49.36,-31.13,485

12066,-0.83,-0.2,-0.14,10.34,41.48,-20.49,485

12086,-0.9,-0.51,-0.14,22.52,53.81,-34.53,485

12106,-0.94,-0.51,-0.06,43.39,42.27,-29.84,484

12126,-0.89,-0.37,0.0,48.37,45.75,-27.12,485

12146,-0.98,-0.25,-0.03,36.23,37.51,-38.85,486

12166,-0.89,-0.26,-0.05,27.88,35.0,-25.67,485

12186,-0.94,-0.26,-0.09,31.79,35.37,-16.19,485

12207,-0.93,-0.18,-0.05,24.84,26.64,-18.96,485

12226,-0.89,-0.25,-0.02,13.65,24.68,-23.74,484

12247,-0.91,-0.3,-0.02,13.21,24.32,-28.76,484

12266,-0.88,-0.26,-0.07,14.77,22.44,-21.49,484

12286,-0.91,-0.17,-0.05,12.89,24.79,-34.47,484

12306,-1.01,-0.08,-0.04,2.61,20.18,-30.0,484

12326,-0.92,-0.18,-0.04,-9.97,13.26,-26.55,484

12346,-0.85,-0.36,0.01,-5.48,18.32,-46.93,484

12366,-0.91,-0.29,-0.01,7.84,21.94,-35.66,484

12386,-0.91,-0.24,-0.09,12.13,24.81,-38.01,485

12406,-0.9,-0.23,-0.06,4.49,21.89,-49.28,485

12426,-0.9,-0.27,-0.07,0.71,22.18,-53.35,486

12446,-0.89,-0.32,-0.04,3.52,24.59,-50.17,486

12466,-0.84,-0.34,0.02,10.05,28.21,-49.9,487

12486,-0.99,-0.34,0.02,20.98,36.45,-67.69,489

12507,-1.09,-0.22,-0.03,17.53,34.67,-71.98,491

12526,-1.23,-0.12,0.01,15.76,42.79,-81.7,493

12547,-1.47,-0.38,0.2,34.86,55.52,-115.56,496

12566,-1.17,-0.55,0.33,52.64,54.0,-121.62,498

12587,-1.03,-0.53,0.35,80.23,70.29,-126.11,500

12606,-1.37,-0.26,0.29,83.07,54.55,-103.53,502

12626,-1.3,-0.0,-0.1,24.78,15.86,-78.18,503

12646,-0.99,-0.12,-0.32,-58.91,-10.46,-101.03,503

12666,-0.78,-0.63,-0.33,-118.29,-9.5,-89.08,503

12686,-0.56,-0.97,-0.45,-113.23,-20.89,-67.31,503

12706,-0.32,-1.09,-0.47,-56.48,-22.17,-15.59,503

12726,-0.05,-1.02,-0.35,15.32,-25.79,5.69,502

12746,-0.38,-0.66,-0.14,38.81,-39.67,69.53,502

12766,-0.24,-0.71,-0.22,41.41,-82.6,124.31,501

12786,-0.2,-0.74,-0.19,43.24,-86.69,174.11,500

12806,-0.29,-0.78,-0.15,45.41,-102.48,206.85,499

12826,-0.4,-0.7,-0.15,26.6,-120.14,228.57,498

12847,-0.57,-0.64,-0.01,-5.49,-132.58,260.79,496

12866,-0.64,-0.65,-0.01,-27.92,-138.8,261.09,493

12887,-0.71,-0.61,0.06,-56.73,-140.23,248.45,489

12906,-1.01,-0.53,0.17,-52.38,-130.4,234.87,485

12926,-1.06,-0.53,0.03,-7.74,-101.0,196.62,482

12946,-0.94,-0.3,0.1,24.58,-81.16,169.12,479

12966,-0.75,0.12,0.15,35.24,-32.58,126.21,479

12986,-0.88,0.27,0.05,24.54,-9.59,56.06,480

13006,-0.86,0.23,0.16,3.68,1.4,0.4,480

13026,-0.75,0.1,0.08,-21.77,16.97,-36.36,480

13046,-0.68,-0.12,-0.04,-49.26,25.29,-74.34,480

13066,-0.82,-0.46,0.15,-52.87,39.48,-98.34,480

13086,-1.73,-0.42,0.71,-0.55,41.81,15.51,480

13106,-1.4,-0.02,0.3,-1.0,6.62,-22.15,484

13126,-0.86,-0.29,-0.0,-43.48,40.88,-84.21,483

13147,-0.8,-0.52,-0.1,-59.6,17.87,-50.23,483

13166,-0.54,-0.58,-0.06,6.2,39.8,-34.98,483

13187,-0.99,-0.36,0.09,38.42,46.96,-38.01,486

13206,-1.05,-0.02,-0.02,9.59,36.36,-29.51,486

13227,-0.86,-0.37,-0.03,-9.75,35.87,-41.82,486

13246,-0.84,-0.58,-0.05,18.03,42.21,-45.67,485

13266,-0.92,-0.4,-0.1,42.81,48.29,-29.31,484

13286,-1.01,-0.19,-0.07,39.33,41.36,-24.13,484

13306,-0.97,-0.12,-0.08,11.44,25.45,-24.47,485

13326,-0.85,-0.33,-0.08,-4.85,21.71,-30.02,484

13346,-0.85,-0.45,-0.01,-4.61,17.2,-25.45,484

13366,-0.92,-0.37,-0.01,0.51,19.92,-22.7,485

13386,-0.93,-0.25,-0.05,1.74,17.71,-19.47,484

13406,-0.92,-0.19,-0.04,0.2,15.78,-18.17,484

13426,-0.92,-0.2,0.02,-2.58,14.01,-30.89,484

13446,-0.93,-0.17,0.07,-4.53,15.42,-22.66,484

13466,-0.94,-0.15,0.03,-8.35,14.61,-18.06,483

13487,-0.93,-0.22,-0.02,-15.2,11.52,-27.01,483

13506,-0.9,-0.24,-0.06,-20.84,8.7,-39.93,483

13527,-0.89,-0.22,0.01,-18.33,12.04,-36.96,483

13546,-0.9,-0.25,-0.0,-15.07,13.58,-33.23,483

13566,-0.86,-0.28,-0.03,-16.42,12.65,-38.27,483

13586,-0.92,-0.29,-0.02,-15.03,16.19,-45.75,483

13606,-0.9,-0.18,-0.01,-7.74,17.71,-37.19,483

13626,-0.87,-0.08,0.03,2.17,26.23,-53.22,484

13646,-0.96,-0.08,0.07,7.27,32.85,-63.98,486

13666,-0.93,-0.19,0.11,13.09,36.99,-77.63,487

13686,-0.84,-0.28,0.16,32.2,54.56,-94.83,490

13706,-1.08,-0.39,0.05,63.56,79.19,-123.75,493

13726,-1.76,-0.3,0.28,103.48,96.06,-122.64,497

13746,-1.85,-0.18,0.39,113.97,90.76,-132.42,500

13766,-1.54,-0.19,0.33,93.16,80.41,-143.23,502

13787,-1.4,-0.37,0.1,36.17,33.05,-129.22,502

13806,-0.78,-0.51,-0.36,-57.6,-2.08,-105.43,502

13827,-0.3,-0.59,-0.43,-129.43,-28.16,-70.63,501

13846,-0.15,-1.17,-0.48,-116.61,13.57,-57.14,501

13867,-0.26,-1.41,-0.22,-34.67,-0.32,-30.7,501

13886,-0.12,-1.13,-0.18,41.82,-20.58,23.0,501

13906,-0.19,-0.59,-0.09,59.09,-39.99,85.29,501

13926,-0.11,-0.58,-0.2,41.18,-63.21,127.17,501

13946,-0.28,-0.63,-0.16,24.02,-76.69,170.75,500

13966,-0.43,-0.7,-0.18,16.0,-96.89,190.16,499

13986,-0.51,-0.66,-0.13,0.81,-114.58,204.91,498

14006,-0.63,-0.64,-0.05,-16.36,-128.75,213.07,496

14026,-0.69,-0.67,0.02,-24.32,-134.57,234.18,494

14046,-0.76,-0.62,0.07,-32.84,-132.23,214.08,490

14066,-0.91,-0.51,0.11,-30.27,-129.47,213.41,487

14086,-1.02,-0.4,0.18,-5.95,-105.74,203.37,483

14106,-0.98,-0.32,0.13,17.24,-85.03,170.25,480

14127,-0.9,-0.2,0.1,57.26,-40.81,128.05,478

14146,-0.83,0.15,0.18,65.0,-19.56,107.78,478

14167,-0.89,0.35,0.13,39.67,-4.26,57.97,478

14186,-0.96,0.28,0.21,6.72,-0.06,7.02,479

14206,-0.81,0.09,0.09,-21.95,10.32,-38.91,479

14226,-0.72,-0.13,-0.02,-41.95,16.26,-56.22,480

14246,-0.59,-0.36,-0.1,-58.82,26.35,-80.1,480

14266,-0.84,-0.61,0.21,-30.16,42.9,-68.7,480

14286,-1.76,-0.22,0.6,3.07,26.94,17.35,481

14306,-1.28,0.1,0.23,-28.77,8.21,-41.42,484

14326,-0.9,-0.36,-0.05,-67.8,34.39,-85.69,484

14346,-0.68,-0.61,-0.07,-55.19,16.07,-43.55,484

14366,-0.73,-0.52,-0.08,18.93,50.12,-33.19,484

14386,-1.02,-0.23,0.1,28.63,34.87,-28.34,485

14406,-0.87,-0.07,0.16,-5.78,32.09,-27.23,485

14427,-0.89,-0.31,0.03,-23.28,31.25,-34.7,485

14446,-0.91,-0.46,-0.11,-9.92,34.79,-32.81,484

14467,-0.95,-0.42,-0.12,17.65,39.55,-17.74,484

14486,-0.95,-0.23,-0.07,27.18,34.88,-19.85,484

14507,-0.97,-0.12,-0.0,3.35,23.34,-26.17,485

14526,-0.84,-0.23,-0.01,-20.74,20.35,-23.76,484

14546,-0.91,-0.43,-0.05,-14.61,23.94,-32.05,485

14566,-0.89,-0.46,-0.02,4.39,24.41,-24.47,484

14586,-0.89,-0.34,-0.01,13.62,26.33,-14.71,484

14606,-0.94,-0.23,-0.05,10.9,24.97,-10.16,483

14626,-0.88,-0.28,-0.05,6.78,21.6,-24.86,483

14646,-0.91,-0.35,-0.01,12.66,24.52,-19.59,483

14666,-0.93,-0.24,0.03,20.28,25.97,-14.97,483

14686,-0.94,-0.23,0.01,23.04,27.22,-33.64,483

14706,-0.94,-0.19,-0.02,17.01,24.91,-28.91,482

14726,-0.96,-0.18,0.0,16.68,25.68,-25.03,482

14746,-0.93,-0.12,0.01,12.81,23.11,-32.81,482

14767,-0.95,-0.12,-0.04,-0.79,19.26,-34.47,482

14786,-0.92,-0.31,-0.1,-7.39,19.83,-46.74,482

14807,-0.86,-0.37,-0.05,5.44,23.48,-34.82,482

14826,-0.86,-0.25,-0.05,11.16,23.87,-42.42,483

14846,-0.93,-0.3,-0.1,-3.29,23.03,-55.69,484

14866,-0.94,-0.4,-0.05,-4.74,20.99,-55.39,485

14886,-0.92,-0.28,0.05,5.56,23.29,-50.19,486

14906,-0.91,-0.26,0.1,11.47,31.17,-79.28,488

14926,-1.04,-0.17,0.12,14.03,35.49,-79.27,490

14946,-1.08,-0.09,0.24,15.88,41.89,-92.05,493

14966,-1.12,-0.09,0.29,33.96,63.05,-103.15,496

14986,-1.66,-0.14,0.37,77.74,92.91,-126.71,499

15006,-2.0,-0.47,0.36,110.89,100.91,-151.38,504

15026,-1.27,-0.36,0.05,88.74,56.58,-155.67,505

15046,-0.73,-0.37,-0.26,5.36,17.2,-120.78,504

15067,-0.49,-0.53,-0.57,-81.78,-0.05,-99.1,503

15086,-0.57,-0.7,-0.48,-120.71,-24.8,-59.68,502

15107,-0.29,-0.97,-0.44,-104.81,-39.81,-29.81,502

15126,-0.07,-1.24,-0.53,-48.96,-31.29,-24.05,502

15147,-0.13,-0.88,-0.14,33.0,-34.89,18.5,503

15166,-0.36,-0.69,-0.17,37.61,-68.48,71.59,503

15186,-0.18,-0.56,-0.19,28.87,-82.8,114.42,502

15206,-0.35,-0.67,-0.08,20.22,-84.63,139.48,501

15226,-0.45,-0.74,-0.06,18.26,-106.35,162.47,500

15246,-0.43,-0.76,-0.06,16.31,-113.33,197.7,499

15266,-0.56,-0.74,0.05,14.89,-119.62,211.25,497

15286,-0.63,-0.63,0.08,8.43,-122.2,220.03,495

15306,-0.66,-0.47,0.07,-21.14,-128.95,227.81,493

15326,-0.79,-0.41,0.11,-45.78,-130.05,234.74,489

15346,-1.07,-0.5,0.15,-36.19,-122.22,222.23,485

15366,-1.06,-0.5,0.22,-10.64,-113.87,205.1,481

15386,-0.95,-0.23,-0.07,14.54,-80.26,176.93,478

15407,-1.03,0.22,0.24,4.95,-69.73,137.04,476

15426,-0.72,0.31,0.06,-11.72,-37.15,86.81,477

15447,-0.89,0.32,0.09,-16.33,-9.61,26.26,477

15466,-0.85,0.25,0.07,-41.29,2.38,-19.57,478

15486,-0.61,0.08,-0.18,-83.11,19.84,-59.99,478

15506,-0.74,-0.38,-0.01,-98.39,41.11,-100.56,478

15526,-1.97,-0.55,0.99,-44.41,15.4,55.96,477

15546,-1.14,-0.31,0.28,-7.03,32.96,-41.62,483

15566,-1.07,-0.43,-0.13,-55.54,41.23,-73.74,482

15586,-0.6,-0.43,-0.16,-49.95,25.23,-33.96,482

15606,-0.64,-0.58,-0.13,39.52,62.94,-29.98,482

15626,-1.26,-0.25,-0.11,33.74,43.05,-20.45,485

15646,-0.98,-0.11,-0.0,-17.07,26.68,-34.07,485

15666,-0.89,-0.34,-0.06,-33.0,30.62,-25.31,484

15686,-0.9,-0.36,-0.17,-14.56,25.37,-17.23,483

15707,-0.89,-0.37,-0.01,-3.9,28.21,-14.3,483

15726,-0.97,-0.28,0.14,-1.68,21.98,-20.65,484

15747,-0.89,-0.23,0.0,-9.34,21.87,-23.71,484

15766,-0.86,-0.4,-0.01,-9.68,18.53,-15.79,484

15787,-0.87,-0.41,0.04,-0.47,20.1,-5.66,484

15806,-0.9,-0.29,0.02,8.52,19.28,4.12,484

15826,-0.88,-0.26,-0.04,9.38,18.55,-8.92,483

15846,-0.95,-0.22,0.02,7.58,18.12,2.28,482

15866,-0.96,-0.16,0.08,9.1,15.65,3.79,483

15886,-0.98,-0.05,0.05,1.76,13.75,-0.29,483

15906,-0.98,-0.11,-0.01,-12.32,8.39,-11.08,482

15926,-0.93,-0.25,0.03,-13.52,8.45,-16.45,482

15946,-0.92,-0.29,-0.01,-4.06,9.19,-14.22,482

15966,-0.92,-0.29,-0.07,-2.56,7.45,-7.91,482

15986,-0.94,-0.25,-0.09,-3.58,4.47,-20.27,482

16006,-0.92,-0.24,-0.08,-5.46,0.61,-4.93,482

16026,-0.84,-0.38,-0.08,-9.89,-1.53,-13.23,482

16047,-0.87,-0.42,0.15,-4.18,1.68,-4.7,481

16066,-1.03,-0.3,0.1,3.23,2.42,-2.95,482

16087,-0.88,-0.16,-0.04,-1.54,-2.39,-7.07,481

16106,-0.91,-0.2,-0.03,-5.28,-0.61,-2.11,481

16126,-0.96,-0.21,0.01,-3.52,-2.1,-3.79,481

16146,-0.89,-0.23,0.05,-5.63,-4.05,-11.62,481

16166,-0.83,-0.34,0.12,3.87,5.49,-3.85,481

16186,-1.0,-0.25,0.08,20.43,9.42,-13.77,481

16206,-0.97,-0.09,-0.02,13.52,4.04,-8.79,481

16226,-0.91,-0.15,-0.02,3.35,3.36,-10.28,481

16246,-0.96,-0.22,0.01,-1.86,0.91,-8.83,481

16266,-0.91,-0.33,-0.02,-8.04,-4.31,-12.78,481

16286,-0.82,-0.41,-0.01,-8.38,-3.97,-13.3,481

