Time,AccX,AccY,AccZ,GyroX,GyroY,GyroZ,Capacitance
7267,-0.89,-0.32,0.1,3.69,2.02,1.35,511
7287,-0.91,-0.29,0.11,2.04,0.66,1.27,509
7307,-0.9,-0.34,0.1,1.99,0.36,-0.56,509
7327,-0.91,-0.3,0.09,1.41,0.28,0.35,509
7347,-0.89,-0.33,0.08,1.29,0.77,0.08,509
7367,-0.89,-0.36,0.11,5.28,1.29,-1.19,509
7388,-0.89,-0.31,0.1,3.99,0.49,-0.1,509
7408,-0.89,-0.32,0.09,2.16,-0.22,-0.84,509
7429,-0.89,-0.31,0.08,4.12,0.83,-1.22,509
7448,-0.91,-0.31,0.09,4.6,1.23,-1.97,509
7469,-0.9,-0.3,0.08,3.72,0.31,-2.59,509
7488,-0.89,-0.33,0.1,4.44,0.92,-3.48,509
7508,-0.9,-0.32,0.09,5.18,0.95,-3.83,509
7528,-0.9,-0.28,0.06,0.89,-1.34,-3.25,509
7548,-0.91,-0.3,0.06,-0.17,-2.1,-5.36,509
7568,-0.91,-0.29,0.08,2.86,-1.23,-6.07,509
7588,-0.93,-0.29,0.09,-0.53,-2.24,-7.43,510
7608,-0.91,-0.33,0.06,0.59,-2.22,-8.1,509
7628,-0.9,-0.29,0.07,2.42,-1.49,-8.79,510
7648,-0.92,-0.25,0.07,0.31,-3.25,-10.12,510
7668,-0.94,-0.24,0.05,-2.04,-6.24,-13.11,510
7688,-0.88,-0.35,0.05,4.21,-3.87,-18.82,510
7708,-0.88,-0.4,0.1,13.75,0.39,-19.89,510
7729,-0.89,-0.38,0.1,12.47,-1.84,-18.44,510
7749,-0.91,-0.33,0.07,15.47,-0.94,-21.84,510
7770,-0.95,-0.24,0.04,24.65,0.56,-25.94,510
7789,-0.96,-0.23,0.07,28.67,-0.35,-35.33,510
7810,-0.96,-0.26,0.13,39.14,5.5,-43.49,510
7829,-1.01,-0.16,0.08,39.79,4.85,-43.26,511
7849,-1.06,-0.03,0.1,22.48,-2.27,-43.52,511
7869,-0.98,-0.1,0.15,-1.27,-11.8,-48.76,511
7889,-0.89,-0.39,0.22,-12.31,-12.38,-50.75,513
7909,-0.88,-0.54,0.24,-9.85,-12.5,-48.41,513
7929,-0.78,-0.65,0.21,-6.6,-10.89,-42.96,513
7949,-0.67,-0.69,0.21,0.76,-5.25,-28.55,512
7969,-0.67,-0.59,0.23,19.34,1.49,7.97,512
7989,-0.81,-0.34,0.19,9.18,-8.38,37.35,512
8009,-0.87,-0.33,0.17,-10.8,-15.47,59.73,512
8029,-0.85,-0.43,0.2,-8.8,-13.64,74.54,512
8049,-0.84,-0.41,0.23,-0.72,-6.22,87.61,512
8070,-0.9,-0.33,0.19,-2.16,-5.93,94.49,512
8090,-0.93,-0.29,0.18,-5.85,-4.65,97.8,512
8111,-0.88,-0.32,0.17,-8.34,-3.72,98.45,512
8130,-0.86,-0.31,0.15,-7.0,-0.83,101.22,512
8151,-0.86,-0.22,0.12,-11.18,-1.86,104.38,511
8170,-0.87,-0.23,0.12,-13.84,-2.59,101.32,511
8190,-0.84,-0.35,0.14,-1.72,5.18,87.74,511
8210,-0.82,-0.24,0.11,16.45,14.28,87.03,511
8230,-0.92,-0.07,0.08,9.11,12.24,77.71,511
8250,-0.92,-0.14,0.15,-3.14,7.81,65.16,511
8270,-0.84,-0.14,0.12,-1.93,4.05,52.66,511
8290,-0.95,-0.02,0.07,-3.04,6.51,33.16,511
8310,-0.93,-0.03,0.13,-15.04,1.14,18.25,511
8330,-0.93,-0.09,0.11,-18.17,-2.45,-0.36,511
8350,-0.92,-0.05,0.09,-29.58,-6.04,-13.14,511
8370,-0.91,-0.1,0.13,-56.3,-16.88,-20.2,510
8390,-0.83,-0.16,0.14,-73.85,-22.56,-32.85,510
8411,-0.8,-0.37,0.08,-69.23,-17.81,-39.91,509
8430,-1.03,-0.27,0.34,-38.82,3.73,-21.91,510
8451,-1.37,0.04,0.49,-24.95,10.49,-12.15,511
8470,-1.15,-0.19,0.19,-49.29,-31.17,-45.74,511
8491,-0.67,-0.44,0.02,-39.41,-10.8,-37.28,511
8510,-0.78,-0.5,-0.04,0.27,18.11,-35.71,511
8530,-0.99,-0.26,0.09,7.08,16.74,-32.38,511
8550,-0.94,-0.2,0.2,-4.71,12.1,-32.06,511
8570,-0.94,-0.19,0.11,-20.77,2.56,-24.7,510
8590,-0.82,-0.44,0.07,-21.41,5.36,-29.51,510
8610,-0.85,-0.52,0.11,14.41,22.66,-29.37,510
8630,-0.97,-0.09,0.09,7.21,15.88,-19.77,510
8650,-0.94,-0.09,0.06,-24.01,5.69,-20.73,510
8670,-0.91,-0.17,0.14,-25.33,7.26,-19.68,510
8690,-0.94,-0.05,0.08,-35.91,2.88,-13.83,511
8710,-0.91,-0.25,0.03,-40.79,5.76,-18.61,511
8730,-0.96,-0.18,0.07,-44.27,2.16,-15.42,510
8751,-0.92,-0.27,0.01,-51.66,0.34,-17.07,510
8770,-0.85,-0.48,-0.05,-46.71,-0.7,-15.74,510
8791,-0.86,-0.58,0.09,-23.38,4.75,-19.42,510
8810,-0.87,-0.45,0.1,0.04,9.23,-20.52,510
8830,-0.88,-0.28,0.08,5.86,11.81,-18.23,510
8850,-0.95,-0.18,0.08,2.74,11.78,-21.08,510
8870,-0.93,-0.17,0.02,0.6,9.23,-23.08,510
8890,-0.93,-0.22,-0.01,3.92,12.11,-27.78,509
8910,-0.94,-0.22,0.05,1.4,7.95,-28.0,510
8930,-0.89,-0.26,0.09,-7.87,4.88,-28.04,510
8950,-0.87,-0.42,0.08,-9.9,3.87,-29.57,510
8970,-0.86,-0.49,0.04,-2.51,8.01,-29.37,510
8990,-0.83,-0.49,0.06,4.83,8.07,-27.42,509
9010,-0.83,-0.45,0.12,6.53,10.11,-26.47,510
9030,-0.83,-0.41,0.13,7.12,11.46,-26.18,510
9051,-0.86,-0.4,0.07,7.21,10.19,-27.17,510
9070,-0.86,-0.46,0.03,8.01,15.06,-27.8,509
9091,-0.9,-0.48,0.08,24.62,16.16,-33.94,510
9110,-0.89,-0.26,0.03,37.43,18.01,-36.17,510
9131,-0.92,-0.19,-0.09,23.67,15.7,-36.04,510
9150,-0.89,-0.34,-0.08,14.71,10.95,-40.43,509
9170,-0.89,-0.4,0.01,21.47,14.54,-45.11,509
9190,-0.88,-0.34,0.04,33.66,17.64,-49.68,509
9210,-0.9,-0.28,0.09,52.94,19.07,-66.55,509
9230,-1.08,-0.2,-0.11,59.14,18.48,-75.52,510
9250,-1.23,-0.34,-0.07,53.64,11.76,-92.01,511
9270,-1.0,-0.51,0.14,65.47,13.76,-100.18,511
9290,-0.97,-0.6,0.3,89.34,29.0,-111.34,512
9310,-0.99,-0.63,0.32,103.03,30.77,-112.97,513
9330,-1.05,-0.43,0.31,87.78,16.69,-105.89,515
9350,-1.07,-0.25,0.31,80.97,17.33,-107.01,516
9370,-1.09,-0.27,0.36,68.79,10.3,-106.44,516
9391,-1.02,-0.42,0.33,70.02,11.82,-108.84,517
9410,-1.06,-0.43,0.12,47.34,-8.09,-99.69,517
9431,-1.03,-0.4,0.02,5.37,-23.8,-74.27,516
9450,-0.79,-0.62,-0.01,-16.74,-27.95,-73.46,515
9470,-0.57,-0.9,-0.04,-19.53,-14.42,-55.52,514
9490,-0.42,-0.93,0.1,-14.17,-23.46,-26.2,513
9510,0.08,-1.0,-0.0,-5.95,8.46,-2.94,512
9530,-0.18,-0.9,0.15,44.89,20.82,49.85,511
9550,-0.2,-0.6,0.1,5.76,1.67,100.14,511
9570,-0.24,-0.66,0.1,-18.51,-15.87,140.05,511
9590,-0.21,-0.84,0.08,-5.81,-3.69,171.48,511
9610,-0.37,-0.82,0.18,11.21,2.51,193.76,511
9630,-0.53,-0.61,0.27,6.45,-9.37,220.81,511
9650,-0.66,-0.51,0.27,-27.32,-26.21,231.94,511
9670,-0.66,-0.65,0.21,-38.65,-25.78,224.55,510
9691,-0.7,-0.61,0.24,-28.48,-16.19,223.65,510
9710,-0.81,-0.52,0.17,-31.4,-15.73,225.01,510
9731,-0.84,-0.45,0.24,-21.43,-0.53,221.62,509
9750,-0.94,-0.39,0.18,-8.04,8.92,190.95,508
9771,-1.01,-0.42,0.16,16.01,22.11,159.8,509
9790,-0.94,-0.17,0.06,43.14,35.79,140.06,509
9810,-1.06,0.12,-0.07,37.66,31.46,107.97,510
9830,-1.04,0.04,0.1,24.57,26.28,68.05,511
9850,-0.88,-0.06,0.11,30.85,23.18,38.08,511
9870,-0.87,-0.08,0.1,35.49,28.88,11.07,511
9890,-0.86,-0.05,0.17,18.02,20.37,0.78,511
9910,-0.87,-0.04,0.17,-7.3,7.0,-8.75,511
9930,-0.96,0.01,0.06,-25.67,1.04,-21.75,511
9950,-0.99,-0.02,0.1,-33.0,2.63,-36.07,511
9970,-0.97,0.05,0.08,-49.46,-4.54,-49.78,511
9990,-0.94,0.04,0.11,-83.38,-13.58,-53.69,510
10010,-1.18,0.24,0.37,-107.67,-18.07,-42.56,510
10031,-1.38,0.34,0.48,-131.56,-29.67,-16.97,510
10050,-1.19,-0.3,0.33,-121.14,-47.8,-42.12,510
10071,-0.78,-0.69,0.09,-85.98,-32.53,-77.8,509
10090,-0.57,-0.55,-0.1,-62.08,-0.6,-41.88,508
10110,-0.66,-0.61,-0.06,-30.94,30.07,-37.94,508
10130,-0.85,-0.46,0.43,-0.08,32.4,-41.34,508
10150,-0.98,-0.17,0.31,6.31,27.36,-39.17,509
10170,-0.97,-0.3,-0.11,-9.52,22.3,-41.31,509
10190,-0.85,-0.4,-0.1,-6.33,28.49,-39.86,508
10210,-0.96,-0.29,0.01,5.25,28.02,-37.77,508
10230,-0.97,-0.24,0.04,-7.72,10.95,-37.77,508
10250,-0.87,-0.34,0.07,-19.91,3.64,-34.62,509
10270,-0.91,-0.37,-0.0,-17.08,7.24,-34.06,509
10290,-0.91,-0.33,-0.03,-20.08,2.75,-28.04,509
10310,-0.86,-0.41,0.04,-17.21,4.66,-28.18,509
10331,-0.88,-0.36,0.08,-6.27,8.92,-28.36,509
10350,-0.93,-0.21,0.06,-4.62,8.07,-26.87,509
10411,-0.94,-0.2,0.0,5.29,10.07,-32.61,509
10430,-0.93,-0.21,-0.01,-1.3,5.35,-35.55,508
10450,-0.86,-0.42,0.01,-3.61,5.07,-37.3,508
10470,-0.83,-0.54,0.09,4.71,9.72,-37.37,508
10490,-0.88,-0.47,0.11,7.9,11.93,-35.62,508
10510,-0.83,-0.48,0.06,13.76,12.78,-36.29,508
10530,-0.86,-0.45,0.06,29.57,19.43,-42.36,508
10550,-0.94,-0.38,0.09,48.5,20.43,-51.55,508
10570,-0.92,-0.21,-0.15,42.65,19.56,-43.95,508
10590,-0.89,-0.28,-0.09,22.13,13.53,-47.39,508
10610,-0.86,-0.45,0.04,25.98,13.61,-52.2,508
10630,-0.86,-0.43,0.07,40.51,19.61,-54.79,508
10650,-0.87,-0.38,0.11,48.21,22.04,-62.62,509
10671,-0.87,-0.32,0.09,55.93,23.75,-68.76,509
10690,-0.92,-0.24,-0.07,28.5,13.5,-61.43,510
10711,-0.92,-0.37,-0.02,32.05,19.59,-75.14,510
10730,-0.99,-0.29,0.09,53.46,25.17,-88.07,511
10750,-1.14,-0.2,0.08,65.15,26.95,-108.87,512
10770,-1.42,-0.27,0.34,86.85,32.49,-137.2,515
10790,-1.62,-0.44,0.34,111.89,28.83,-164.85,517
10810,-1.53,-0.46,0.33,114.86,18.51,-162.0,518
10830,-0.93,-0.45,0.21,73.14,-7.35,-135.11,517
10850,-0.55,-0.58,0.16,25.05,-15.02,-101.04,516
10870,-0.62,-0.76,0.17,-15.06,-20.15,-81.62,515
10890,-0.57,-0.96,0.03,-21.35,-25.37,-63.4,514
10910,-0.35,-0.94,-0.1,-8.85,-17.58,-35.04,513
10930,-0.26,-0.96,0.06,12.94,-8.13,-14.58,512
10950,-0.01,-0.96,-0.08,26.54,-1.78,-1.31,511
10971,-0.24,-0.74,0.26,57.52,24.11,56.57,510
10990,-0.23,-0.59,0.07,5.55,-18.56,88.93,510
11011,-0.32,-0.64,0.18,-19.95,-20.01,118.08,510
11030,-0.26,-0.76,0.14,-25.78,-25.22,146.14,510
11051,-0.29,-0.76,0.19,-4.63,-10.21,170.4,510
11070,-0.45,-0.76,0.15,15.21,-4.6,185.77,510
11090,-0.58,-0.58,0.23,8.27,-7.92,200.7,511
11110,-0.7,-0.51,0.27,-8.95,-3.29,203.39,511
11130,-0.75,-0.55,0.2,-26.68,-12.71,207.25,511
11150,-0.82,-0.56,0.14,-30.54,-8.62,204.98,511
11170,-0.85,-0.54,0.13,-28.57,-9.25,205.61,511
11190,-0.83,-0.5,0.11,-16.11,-1.4,203.61,510
11210,-0.91,-0.43,0.23,2.5,18.68,184.8,509
11230,-0.89,-0.27,0.22,3.41,11.03,180.38,508
11250,-0.93,-0.13,0.07,0.24,13.09,146.75,507
11270,-1.04,-0.11,0.16,-3.04,16.05,116.8,508
11290,-0.98,-0.0,0.07,-2.53,11.78,94.4,509
11311,-0.99,-0.03,-0.03,-6.83,12.11,48.05,510
11330,-0.93,-0.11,0.12,2.31,14.53,26.08,511
11351,-0.87,-0.11,0.08,15.63,20.05,-2.9,511
11370,-0.95,-0.04,0.11,0.62,11.75,-21.54,511
11390,-0.88,-0.08,0.16,-28.95,1.12,-34.18,511
11410,-0.85,-0.07,0.12,-58.25,-9.61,-44.21,510
11430,-0.98,-0.02,0.12,-93.79,-17.67,-54.87,509
11450,-1.08,-0.13,0.51,-94.86,-5.0,-45.31,509
11470,-1.59,0.1,0.8,-61.75,8.33,-6.35,510
11490,-1.14,-0.27,0.13,-82.92,-56.36,-71.8,511
11510,-0.6,-0.46,-0.09,-82.89,-24.89,-74.2,510
11530,-0.58,-0.59,-0.2,-46.63,16.04,-40.0,509
11550,-0.86,-0.66,0.1,7.89,33.99,-47.69,509
11570,-0.83,-0.36,0.33,25.73,35.43,-46.7,509
11590,-0.96,-0.17,0.21,12.05,30.02,-40.18,510
11611,-0.91,-0.32,-0.06,-17.32,17.56,-38.61,510
11630,-0.82,-0.54,-0.04,-9.29,25.29,-38.79,509
11651,-0.92,-0.45,0.03,15.35,30.54,-32.49,509
11670,-0.96,-0.24,0.07,10.7,21.49,-30.61,509
11691,-0.89,-0.3,0.02,-2.51,16.72,-32.35,509
11710,-0.9,-0.33,-0.02,7.15,18.46,-31.74,509
11730,-1.02,-0.25,-0.03,10.27,14.19,-32.52,509
11750,-0.9,-0.25,-0.01,12.16,17.0,-34.67,509
11770,-0.92,-0.2,0.02,10.8,15.67,-32.44,509
11790,-0.95,-0.18,0.03,0.76,10.01,-34.26,509
11810,-0.9,-0.29,0.0,-8.77,4.46,-33.28,509
11830,-0.86,-0.41,0.05,-14.33,1.81,-30.29,509
11850,-0.85,-0.52,0.08,-7.76,5.23,-32.0,509
11870,-0.84,-0.46,0.08,1.99,6.19,-29.01,509
11890,-0.86,-0.33,0.05,3.15,7.32,-27.65,509
11910,-0.88,-0.32,0.01,4.36,9.3,-30.56,509
11930,-0.91,-0.33,0.0,8.97,9.49,-32.44,509
11951,-0.92,-0.29,0.01,9.55,9.35,-34.53,509
11970,-0.95,-0.27,-0.01,8.54,6.94,-38.01,508
11991,-0.91,-0.3,-0.02,13.34,4.94,-43.57,509
12010,-0.87,-0.3,-0.01,14.67,5.91,-46.21,509
12030,-0.89,-0.31,-0.0,9.99,4.27,-49.57,509
12050,-0.89,-0.35,0.01,0.65,-0.18,-49.98,509
12070,-0.88,-0.48,0.02,2.77,-0.15,-56.35,509
12090,-0.83,-0.44,0.02,14.56,0.68,-57.31,510
12110,-0.85,-0.4,0.06,26.13,4.59,-65.55,510
12130,-0.94,-0.35,-0.03,25.99,6.59,-66.5,511
12150,-0.92,-0.34,-0.03,26.36,6.48,-72.44,511
12170,-1.01,-0.24,-0.05,36.5,13.79,-83.86,512
12190,-1.35,-0.13,0.07,38.89,13.61,-99.13,513
12210,-1.45,-0.23,0.22,49.31,9.11,-124.2,515
12230,-1.41,-0.44,0.21,76.85,16.85,-160.3,517
12251,-1.37,-0.36,0.37,91.61,17.32,-154.47,518
12270,-0.88,-0.59,0.24,60.44,2.92,-142.04,518
12291,-0.67,-0.66,0.22,45.26,5.09,-111.55,518
12310,-0.65,-0.61,0.15,6.34,-11.6,-90.94,517
12331,-0.62,-0.82,0.12,-15.88,-16.07,-71.34,516
12350,-0.39,-0.95,-0.03,-18.22,-18.42,-51.36,515
12370,-0.28,-1.04,0.06,1.9,-6.57,-24.56,513
12390,-0.03,-1.22,-0.24,21.64,-6.28,-10.44,512
12410,-0.06,-0.76,0.25,83.09,36.97,34.67,510
12430,-0.33,-0.58,0.19,47.92,1.98,80.98,510
12450,-0.33,-0.51,0.22,-11.2,-22.56,113.09,510
12470,-0.34,-0.64,0.18,-36.89,-45.89,141.15,509
12490,-0.32,-0.69,0.23,-43.32,-38.56,162.84,510
12510,-0.35,-0.79,0.22,-27.69,-38.21,183.67,510
12530,-0.46,-0.8,0.2,-5.11,-25.72,193.59,510
12550,-0.61,-0.59,0.24,-7.58,-22.85,206.6,511
12570,-0.68,-0.5,0.28,-27.3,-28.07,215.36,511
12591,-0.63,-0.64,0.17,-36.36,-26.53,215.36,511
12610,-0.69,-0.69,0.17,-20.57,-11.93,207.33,510
12631,-0.84,-0.57,0.18,-3.18,-3.2,205.83,509
12650,-0.93,-0.41,0.27,6.36,7.79,207.61,509
12670,-0.87,-0.31,0.22,6.91,16.39,186.89,508
12690,-0.96,-0.28,0.11,12.33,28.05,158.22,507
12710,-1.01,-0.13,0.0,11.0,22.01,140.84,506
12730,-1.08,0.03,0.07,10.54,21.9,113.1,506
12750,-1.07,0.03,0.09,5.63,10.6,64.55,506
12770,-0.98,-0.09,0.04,20.07,12.53,27.9,508
12790,-0.89,-0.14,0.03,46.15,26.43,-7.36,509
12810,-0.96,-0.04,0.1,42.09,26.85,-30.2,511
12830,-0.9,-0.03,0.11,14.96,15.35,-43.34,511
12850,-0.87,-0.03,0.1,-9.64,11.9,-58.52,510
12870,-0.96,-0.0,0.06,-42.63,1.35,-65.23,510
12891,-0.95,-0.01,0.32,-92.97,-21.18,-53.04,509
12910,-1.13,0.2,0.59,-115.32,-15.05,-20.33,509
12931,-1.46,-0.11,0.61,-122.92,-37.0,-24.64,510
12950,-0.78,-0.75,0.04,-87.7,-36.3,-66.65,510
12971,-0.73,-0.37,-0.15,-39.79,3.27,-53.95,510
12990,-0.86,-0.1,-0.3,-35.08,19.61,-33.88,509
13010,-0.8,-0.39,0.13,-16.13,26.86,-45.28,508
13030,-0.91,-0.34,0.26,-4.6,35.75,-48.38,509
13050,-0.98,-0.29,0.15,-19.03,17.73,-45.81,509
13070,-0.74,-0.61,-0.09,-13.11,20.36,-47.17,509
13090,-0.84,-0.58,-0.01,2.6,27.15,-34.68,508
13110,-0.92,-0.47,0.08,13.92,28.51,-36.87,508
13130,-0.9,-0.38,0.07,7.96,21.73,-30.78,509
13150,-0.87,-0.38,0.02,5.26,20.11,-32.38,509
13170,-0.94,-0.35,-0.02,21.18,24.94,-32.91,509
13190,-0.97,-0.19,-0.01,24.36,21.72,-31.26,509
13210,-0.93,-0.22,0.03,16.56,15.69,-33.59,509
13231,-0.92,-0.3,0.06,19.49,12.45,-37.3,509
13250,-0.91,-0.26,0.03,22.41,12.14,-39.69,509
13271,-0.89,-0.3,-0.01,21.2,14.24,-39.49,509
13290,-0.89,-0.33,0.01,16.8,12.28,-36.75,509
13310,-0.86,-0.36,0.03,15.61,12.75,-36.87,509
13330,-0.88,-0.35,0.06,15.6,13.7,-36.0,509
13350,-0.87,-0.4,0.02,17.55,12.6,-40.32,509
13370,-0.88,-0.34,-0.03,15.21,12.04,-38.64,510
13390,-0.9,-0.38,-0.02,15.03,11.95,-39.84,509
13410,-0.87,-0.36,0.01,17.09,11.01,-38.84,509
13430,-0.86,-0.38,0.02,6.89,4.53,-38.53,510
13450,-0.81,-0.54,0.05,7.54,5.9,-44.39,510
13470,-0.84,-0.5,0.04,19.23,10.16,-39.91,510
13490,-0.85,-0.35,0.02,19.96,9.12,-41.68,510
13510,-0.9,-0.36,0.01,16.01,7.58,-46.96,510
13531,-0.93,-0.4,-0.01,20.02,5.93,-52.59,511
13550,-0.9,-0.34,-0.01,28.28,9.03,-57.23,511
13571,-0.87,-0.37,0.01,26.33,8.57,-61.89,511
13590,-0.87,-0.38,0.08,25.83,11.18,-65.72,512
13611,-0.9,-0.31,0.03,30.96,12.04,-72.43,512
13630,-0.99,-0.29,-0.01,38.92,13.84,-86.81,513
13650,-1.23,-0.39,0.04,37.47,11.61,-101.34,514
13670,-1.41,-0.43,0.13,38.7,3.99,-113.07,516
13690,-1.27,-0.53,0.28,36.28,-8.73,-118.87,517
13710,-0.95,-0.57,0.42,57.37,-5.93,-117.33,517
13730,-0.75,-0.56,0.34,57.7,-5.4,-104.85,517
13750,-0.71,-0.6,0.24,43.23,-12.54,-89.25,517
13770,-0.83,-0.67,0.11,16.18,-19.14,-75.74,517
13790,-0.89,-0.73,0.08,-4.86,-30.22,-61.31,516
13810,-0.64,-0.89,0.02,-5.46,-36.99,-50.78,515
13830,-0.46,-0.86,-0.08,9.05,-25.51,-35.07,514
13850,-0.42,-0.82,-0.05,6.01,-31.8,-14.82,513
13871,-0.12,-0.93,-0.41,-37.18,-39.72,-20.1,512
13890,-0.22,-0.76,0.21,6.8,6.17,6.9,511
13911,-0.22,-0.87,0.25,22.04,-14.62,66.4,511
13930,-0.25,-0.65,0.15,14.77,-20.18,100.46,511
13950,-0.32,-0.7,0.12,14.05,-10.59,129.32,511
13970,-0.32,-0.72,0.21,3.23,-10.25,150.78,511
13990,-0.35,-0.72,0.22,-4.22,-18.93,178.67,511
14010,-0.45,-0.71,0.21,-1.95,-10.88,198.32,511
14030,-0.56,-0.65,0.28,-5.96,-9.28,215.21,511
14050,-0.68,-0.61,0.24,-18.42,-17.2,225.67,511
14070,-0.69,-0.55,0.23,-35.75,-23.47,229.32,511
14090,-0.72,-0.54,0.16,-42.82,-23.03,225.01,510
14110,-0.81,-0.5,0.16,-34.08,-14.28,226.58,509
14130,-1.05,-0.49,0.16,-15.79,6.59,200.16,509
14150,-1.04,-0.33,0.28,6.41,11.5,180.8,508
14171,-0.86,-0.1,0.13,10.15,15.09,157.13,507
14190,-1.02,-0.15,-0.06,11.08,23.3,111.22,507
14211,-1.12,-0.02,0.08,12.42,15.49,83.93,508
14230,-0.97,-0.01,0.17,7.5,10.27,46.64,509
14251,-0.84,-0.18,0.12,18.8,16.78,11.16,510
14270,-0.85,-0.16,0.16,23.83,20.36,-8.12,510
14290,-0.91,-0.04,0.23,6.02,10.11,-27.54,510
14310,-0.94,0.07,0.13,-42.24,-14.18,-42.3,509
14330,-0.93,0.03,0.05,-98.89,-34.07,-53.74,509
14350,-0.78,-0.36,0.09,-106.46,-28.15,-56.96,508
14370,-1.09,-0.38,0.53,-36.21,17.55,-18.23,509
14390,-1.46,-0.09,0.56,2.28,10.95,-30.33,510
14410,-1.12,0.03,0.18,-30.79,-23.7,-62.0,511
14430,-0.71,-0.19,-0.05,-54.48,-12.57,-47.48,511
14450,-0.8,-0.49,-0.2,-18.36,19.35,-42.68,510
14470,-0.97,-0.36,0.08,-0.45,20.57,-45.25,509
14490,-0.9,-0.28,0.24,-6.16,16.2,-46.99,510
14511,-0.82,-0.36,0.22,-9.27,12.16,-41.02,510
14530,-0.78,-0.49,0.17,1.63,23.12,-45.89,510
14551,-0.92,-0.36,0.07,22.82,32.77,-38.53,510
14570,-0.94,-0.19,-0.1,7.43,26.3,-34.65,510
14590,-0.92,-0.28,-0.03,-2.71,19.21,-35.4,510
14610,-0.96,-0.34,0.08,-7.08,13.24,-34.24,510
14630,-0.87,-0.34,0.07,-12.34,6.82,-35.23,510
14650,-0.86,-0.41,0.05,0.41,13.87,-34.84,510
14670,-0.89,-0.41,0.03,2.1,13.0,-29.19,510
14690,-0.83,-0.46,0.04,-0.83,11.01,-25.17,510
14710,-0.84,-0.52,0.15,8.38,13.52,-24.65,510
14730,-0.88,-0.37,0.16,14.48,16.25,-23.49,510
14750,-0.88,-0.3,0.03,11.44,15.21,-23.25,510
14770,-0.93,-0.37,0.02,11.49,15.09,-22.78,510
14790,-0.83,-0.42,0.01,3.37,11.11,-18.82,510
14811,-0.84,-0.51,0.09,8.86,12.68,-18.87,510
14830,-0.9,-0.43,0.09,18.33,14.45,-18.36,510
14851,-0.86,-0.33,0.06,16.99,12.56,-16.09,510
14870,-0.93,-0.28,0.04,16.19,13.49,-20.78,510
14891,-0.95,-0.16,0.0,18.65,12.6,-23.22,510
14910,-0.97,-0.02,-0.06,10.42,9.78,-27.31,510
14930,-1.01,-0.05,-0.05,-5.23,1.9,-33.36,510
14950,-0.95,-0.18,-0.0,-14.59,-4.47,-38.53,509
14970,-0.85,-0.39,0.04,-15.24,-5.75,-42.78,509
14990,-0.81,-0.45,0.01,-9.27,-0.01,-42.88,509
15010,-0.85,-0.4,0.03,-12.82,-3.7,-41.31,509
15030,-0.86,-0.42,0.03,-15.95,-6.88,-42.64,509
15050,-0.81,-0.46,0.01,-9.67,-4.48,-47.05,509
15070,-0.85,-0.5,0.02,-3.46,-1.54,-50.78,509
15090,-0.91,-0.45,0.05,6.8,-0.19,-55.55,510
15110,-0.91,-0.36,0.04,14.51,0.14,-61.69,510
15130,-0.99,-0.28,-0.0,14.71,1.9,-68.38,511
15151,-1.16,-0.25,-0.04,17.2,4.34,-78.78,512
15170,-1.35,-0.27,0.12,29.31,3.79,-95.22,513
15191,-1.4,-0.28,0.3,60.34,9.76,-124.03,515
15210,-1.43,-0.23,0.34,100.99,21.88,-151.75,518
15230,-1.36,-0.27,0.37,116.57,22.24,-161.25,519
15250,-1.0,-0.35,0.33,81.28,7.7,-136.85,519
15270,-0.49,-0.56,0.09,4.34,-26.13,-106.47,517
15290,-0.4,-0.78,0.02,-41.55,-20.36,-88.49,515
15310,-0.44,-1.08,-0.09,-38.94,-15.47,-69.84,514
15330,-0.28,-1.18,-0.03,-5.04,-6.5,-42.53,513
15350,-0.23,-1.12,-0.01,45.78,9.53,-24.15,513
15370,-0.18,-0.79,0.15,80.56,21.46,20.32,512
15390,-0.39,-0.55,0.17,58.6,1.06,69.56,511
15410,-0.3,-0.43,0.18,-6.33,-18.68,107.16,510
15430,-0.35,-0.63,0.21,-43.2,-42.18,138.51,510
15451,-0.29,-0.76,0.17,-46.6,-37.35,163.01,511
15470,-0.39,-0.76,0.16,-28.37,-31.47,185.8,511
15491,-0.53,-0.7,0.2,-11.33,-23.23,204.57,511
15510,-0.65,-0.61,0.21,-23.91,-30.47,219.38,511
15531,-0.68,-0.56,0.22,-44.8,-35.2,230.16,510
15550,-0.73,-0.52,0.23,-58.22,-34.05,235.16,510
15570,-0.77,-0.54,0.13,-52.46,-33.9,226.0,509
15590,-0.93,-0.6,0.15,-32.25,-13.95,212.95,508
15610,-0.94,-0.39,0.27,-27.37,-6.7,218.51,507
15630,-0.93,-0.12,0.16,-37.44,-9.11,187.65,506
15650,-0.97,-0.29,0.06,-21.29,6.49,130.14,506
15670,-0.92,-0.22,-0.02,9.12,17.36,91.64,506
15690,-1.03,-0.03,-0.0,8.24,18.46,42.75,507
15710,-1.04,0.1,0.15,-22.22,3.03,16.31,507
15730,-0.86,-0.16,0.15,-46.75,-12.21,-22.14,508
15750,-0.8,-0.32,0.09,-60.14,-11.35,-55.46,508
15770,-0.86,-0.47,0.18,-74.97,-21.44,-64.53,507
15791,-1.01,-0.25,0.66,-31.58,19.69,-16.36,508
15810,-1.67,0.01,0.54,-12.46,7.55,-15.66,509
15831,-0.95,-0.27,0.06,-63.43,-32.73,-59.1,509
15850,-0.52,-0.43,-0.08,-71.04,-8.7,-26.09,508
15870,-0.81,-0.59,-0.07,-25.59,28.16,-29.6,508
15890,-0.94,-0.34,0.21,-10.3,22.53,-23.46,507
15910,-0.89,-0.17,0.31,-15.73,19.88,-18.84,508
15930,-0.85,-0.24,0.22,-22.74,15.56,-15.75,508
15950,-0.92,-0.51,-0.05,-10.45,21.81,-21.88,508
15970,-0.98,-0.49,-0.19,5.76,30.08,-16.78,508
15990,-0.88,-0.31,-0.05,12.73,32.11,-12.15,508
16010,-1.0,-0.21,0.14,8.94,24.98,-12.96,508
16030,-0.96,-0.11,0.1,3.79,14.77,-11.46,509
16050,-0.92,-0.19,-0.04,5.15,15.55,-13.01,509
16070,-0.96,-0.17,-0.03,10.41,18.07,-13.25,509
16091,-0.96,-0.09,0.08,5.6,12.77,-15.92,509
16110,-1.0,-0.09,0.09,-6.51,4.74,-14.73,510
16131,-0.89,-0.3,-0.01,-9.79,4.05,-16.82,510
16150,-0.92,-0.37,0.04,0.02,8.45,-15.26,510
16171,-0.88,-0.26,0.12,8.42,12.89,-16.29,510
16190,-0.93,-0.21,0.14,1.34,5.82,-13.69,510
16210,-0.91,-0.32,0.08,-3.2,4.34,-18.36,509
16230,-0.9,-0.3,0.05,1.38,4.54,-14.73,510
16250,-0.92,-0.25,0.04,-1.08,3.93,-14.52,509
16270,-0.92,-0.25,0.02,-1.46,5.69,-13.1,509
