Time,AccX,AccY,AccZ,GyroX,GyroY,GyroZ,Capacitance
7267,-0.83,-0.38,0.12,-2.28,1.87,8.75,494
7287,-0.85,-0.41,0.12,-3.5,-0.1,25.6,491
7307,-0.83,-0.37,0.15,-6.84,-4.52,41.39,491
7327,-0.87,-0.35,0.13,-9.12,-7.36,56.43,492
7347,-0.92,-0.3,0.14,-12.12,-8.63,66.99,492
7367,-0.88,-0.29,0.16,-15.88,-9.38,73.31,492
7388,-0.9,-0.3,0.15,-14.66,-8.02,77.89,493
7408,-0.95,-0.27,0.13,-12.89,-9.03,78.04,492
7429,-0.89,-0.26,0.16,-12.73,-11.16,79.27,492
7448,-0.9,-0.23,0.15,-12.38,-10.49,80.18,492
7469,-0.93,-0.26,0.16,-14.03,-11.7,80.38,491
7488,-0.87,-0.24,0.15,-14.47,-12.28,76.79,491
7508,-0.88,-0.19,0.14,-19.24,-13.52,73.66,490
7528,-0.92,-0.21,0.13,-25.15,-16.65,69.16,490
7548,-0.93,-0.2,0.15,-21.06,-16.14,63.63,490
7568,-0.91,-0.12,0.14,-18.38,-14.39,55.13,490
7588,-0.95,-0.08,0.11,-16.17,-10.31,41.1,490
7608,-0.92,-0.06,0.15,-12.02,-8.86,31.51,490
7628,-0.89,-0.07,0.11,-5.82,-5.13,18.18,490
7648,-0.96,-0.03,0.1,-6.84,-2.2,12.98,490
7668,-0.92,-0.05,0.16,-20.18,-7.06,6.99,490
7688,-0.9,-0.16,0.12,-23.67,-8.45,-0.95,489
7708,-0.93,-0.13,0.08,-17.19,1.54,-8.67,489
7729,-0.87,-0.16,0.12,-25.82,-2.29,-16.83,489
7749,-0.77,-0.33,0.07,-22.47,3.69,-30.09,489
7770,-0.9,-0.21,0.12,-17.5,15.68,-40.73,489
7789,-1.18,-0.06,0.3,-18.17,19.84,-36.23,489
7810,-1.32,0.03,0.37,-27.18,-5.26,-20.44,489
7829,-0.94,-0.03,-0.05,-51.67,-15.32,-32.12,489
7849,-0.79,-0.2,-0.06,-67.64,-4.28,-40.02,489
7869,-0.86,-0.41,0.05,-64.84,-2.83,-25.56,489
7889,-0.82,-0.68,0.15,-15.06,20.87,-30.61,489
7909,-0.85,-0.3,0.25,-2.43,19.37,-21.97,489
7929,-0.88,-0.41,0.29,-11.59,16.22,-21.35,489
7949,-0.79,-0.54,0.24,3.65,21.19,-21.85,489
7969,-0.89,-0.37,0.1,16.91,27.61,-17.7,489
7989,-0.9,-0.26,0.05,21.34,30.71,-16.17,488
8009,-0.97,-0.17,0.08,24.75,29.84,-17.21,488
8029,-0.91,-0.21,0.12,21.11,26.56,-19.61,488
8049,-0.94,-0.29,0.1,31.46,25.86,-22.37,488
8070,-0.97,-0.27,-0.02,41.01,26.07,-25.02,488
8090,-0.93,-0.2,-0.14,34.59,25.61,-21.67,488
8111,-0.95,-0.17,-0.13,27.88,25.1,-17.7,488
8130,-0.95,-0.19,-0.04,16.17,20.0,-15.97,487
8151,-0.93,-0.33,0.04,10.69,16.16,-18.9,488
8170,-0.88,-0.36,0.07,18.94,16.82,-20.83,488
8190,-0.95,-0.22,0.02,20.91,15.43,-21.59,488
8210,-0.92,-0.24,-0.02,13.85,12.59,-20.19,488
8230,-0.9,-0.25,-0.03,10.9,13.95,-18.14,488
8250,-0.9,-0.28,0.02,7.07,11.78,-17.28,488
8270,-0.94,-0.27,-0.01,1.37,7.86,-17.65,488
8290,-0.89,-0.29,-0.05,-1.1,7.48,-17.8,487
8310,-0.92,-0.26,-0.02,1.49,9.39,-18.51,487
8330,-0.94,-0.2,0.01,-4.86,6.47,-19.1,487
8350,-0.9,-0.23,-0.01,-16.72,2.65,-19.3,487
8370,-0.9,-0.27,-0.02,-20.96,-0.46,-20.66,487
8390,-0.91,-0.42,0.03,-7.94,3.81,-25.94,487
8411,-0.86,-0.43,0.02,5.19,7.14,-27.56,487
8430,-0.85,-0.4,0.0,10.56,9.54,-27.25,487
8451,-0.89,-0.35,0.01,15.45,11.16,-28.35,487
8470,-0.88,-0.29,-0.04,12.7,11.77,-25.79,487
8491,-0.86,-0.37,-0.06,7.66,10.58,-26.37,487
8510,-0.9,-0.41,-0.02,10.0,10.48,-27.48,487
8530,-0.89,-0.38,-0.01,13.82,10.74,-28.14,487
8550,-0.85,-0.39,-0.02,5.94,7.49,-25.33,488
8570,-0.82,-0.47,-0.02,-1.15,5.77,-25.04,488
8590,-0.88,-0.5,-0.01,2.17,6.84,-25.42,488
8610,-0.94,-0.37,-0.05,7.86,6.77,-27.25,488
8630,-0.95,-0.31,-0.1,12.72,6.59,-31.79,488
8650,-1.04,-0.38,-0.08,23.59,9.55,-39.67,488
8670,-1.11,-0.35,0.01,31.6,7.61,-46.57,489
8690,-1.0,-0.36,0.11,34.65,5.35,-53.62,490
8710,-0.87,-0.4,0.1,35.86,4.71,-57.01,490
8730,-0.89,-0.36,0.06,27.91,0.44,-57.27,490
8751,-0.9,-0.36,0.03,20.43,-0.42,-60.89,491
8770,-0.9,-0.38,0.04,27.89,6.1,-65.64,492
8791,-0.91,-0.44,-0.02,32.91,11.14,-66.37,493
8810,-0.87,-0.45,0.08,41.59,16.01,-71.71,494
8830,-0.89,-0.41,0.12,46.23,17.57,-73.28,495
8850,-0.96,-0.41,0.14,46.93,15.29,-79.54,495
8870,-1.04,-0.34,0.21,48.29,13.22,-82.37,496
8890,-1.03,-0.31,0.18,25.97,-3.27,-76.03,497
8910,-1.01,-0.39,0.2,8.98,-9.18,-74.11,497
8930,-1.0,-0.63,0.09,3.3,-10.75,-78.75,497
8950,-1.04,-0.7,-0.02,12.61,-9.33,-73.24,497
8970,-0.82,-0.68,-0.14,-0.2,-7.73,-64.58,495
8990,-0.55,-0.67,-0.25,-32.93,-6.28,-51.74,494
9010,-0.34,-0.85,-0.21,-31.41,-5.01,-32.86,492
9030,-0.19,-1.02,0.01,15.01,3.28,9.28,492
9051,-0.18,-0.73,0.18,35.33,17.22,73.6,491
9070,-0.25,-0.53,0.02,13.27,-15.06,130.98,491
9091,-0.41,-0.63,-0.02,-0.32,-16.83,174.18,491
9110,-0.59,-0.71,0.06,-5.71,-31.41,198.5,491
9131,-0.56,-0.67,0.13,-12.12,-35.59,222.0,492
9150,-0.62,-0.57,0.17,-16.7,-27.26,237.36,492
9170,-0.79,-0.55,0.18,-48.89,-45.16,239.17,493
9190,-0.78,-0.66,0.12,-61.41,-56.71,231.89,492
9210,-0.78,-0.56,0.07,-46.78,-48.74,225.54,491
9230,-0.95,-0.46,0.15,-33.97,-41.38,198.47,490
9250,-0.95,-0.4,0.22,-36.46,-43.82,176.27,489
9270,-0.83,-0.42,0.17,-32.12,-35.01,143.94,489
9290,-0.94,-0.32,0.11,-19.74,-20.08,115.83,488
9310,-1.05,-0.05,0.19,-25.73,-20.65,88.47,488
9330,-1.01,-0.02,0.09,-36.28,-22.55,39.42,488
9350,-0.93,-0.17,0.02,-28.63,-9.68,-0.54,488
9370,-0.83,-0.19,0.0,-21.24,-5.96,-36.81,488
9391,-0.77,-0.3,-0.04,-27.13,2.38,-68.25,487
9410,-1.06,-0.2,-0.04,2.82,42.82,-49.7,487
9431,-1.47,0.02,0.48,5.91,9.9,-4.55,488
9450,-0.88,0.11,0.07,-27.04,-12.51,-34.84,488
9470,-1.03,-0.07,0.12,-68.92,0.5,-61.45,488
9490,-0.9,-0.56,0.07,-71.09,-8.8,-34.26,488
9510,-0.71,-0.68,0.01,10.75,30.42,-43.62,488
9530,-0.89,-0.25,0.26,27.37,33.69,-46.8,488
9550,-0.97,-0.19,0.17,2.07,21.11,-33.01,487
9570,-0.78,-0.4,0.16,-6.55,17.02,-29.57,487
9590,-0.82,-0.58,0.14,24.09,36.12,-36.69,487
9610,-0.91,-0.23,0.13,37.49,36.88,-30.75,487
9630,-0.92,-0.12,-0.01,26.14,34.41,-26.8,488
9650,-1.02,-0.19,-0.02,15.72,27.43,-28.66,487
9670,-0.93,-0.19,-0.09,3.1,20.32,-25.71,487
9691,-0.9,-0.46,-0.06,2.59,19.0,-23.3,487
9710,-0.91,-0.48,0.02,11.75,18.96,-20.84,487
9731,-0.86,-0.44,0.05,24.01,21.25,-20.89,487
9750,-0.93,-0.28,0.06,29.68,20.82,-20.66,488
9771,-0.93,-0.18,0.03,21.24,17.51,-20.51,488
9790,-0.89,-0.2,-0.03,15.22,17.74,-19.28,489
9810,-0.94,-0.19,-0.05,9.51,16.44,-15.9,489
9830,-0.9,-0.27,0.01,4.43,14.68,-18.03,488
9850,-0.93,-0.29,0.02,6.33,13.68,-18.64,488
9870,-0.9,-0.27,0.04,8.4,11.87,-21.54,488
9890,-0.92,-0.31,0.03,14.7,13.19,-25.38,488
9910,-0.94,-0.24,-0.03,12.18,10.21,-23.59,488
9930,-0.88,-0.28,-0.07,5.62,10.1,-23.39,488
9950,-0.91,-0.3,-0.01,11.82,12.94,-26.2,488
9970,-0.91,-0.17,0.02,14.41,12.06,-28.95,488
9990,-0.93,-0.2,-0.01,11.01,11.25,-32.92,488
10010,-0.95,-0.22,-0.01,11.14,9.34,-38.02,488
10031,-0.91,-0.22,0.0,9.48,8.13,-41.67,488
10050,-0.87,-0.3,-0.06,3.01,8.58,-40.64,489
10071,-0.87,-0.35,-0.03,-4.61,6.16,-39.48,489
10090,-0.89,-0.46,0.02,2.04,6.94,-44.15,489
10110,-0.89,-0.45,0.03,14.43,7.68,-46.99,489
10130,-0.89,-0.36,0.02,13.97,6.7,-48.06,490
10150,-0.92,-0.37,0.01,10.69,7.05,-51.39,491
10170,-0.91,-0.39,-0.03,15.17,9.35,-54.08,491
10190,-0.9,-0.42,0.0,15.2,9.23,-58.7,492
10210,-0.86,-0.51,0.06,15.31,5.32,-58.96,493
10230,-0.85,-0.54,0.08,25.14,10.24,-61.91,493
10250,-0.88,-0.55,0.08,29.02,8.76,-61.62,493
10270,-0.87,-0.47,0.04,27.27,7.1,-62.87,494
10290,-0.97,-0.4,-0.01,22.88,8.12,-64.9,494
10310,-1.12,-0.45,-0.05,18.41,3.66,-70.49,495
10331,-1.07,-0.55,0.06,20.72,0.93,-78.54,495
10350,-0.92,-0.46,0.2,33.92,4.07,-84.4,496
10371,-1.01,-0.29,0.28,51.16,12.5,-89.24,497
10390,-1.15,-0.24,0.27,44.76,6.07,-86.78,497
10411,-1.06,-0.25,0.32,28.94,1.66,-83.15,498
10430,-0.94,-0.54,0.16,0.69,-17.06,-78.03,497
10450,-0.92,-0.72,-0.04,-10.08,-25.23,-76.81,496
10470,-0.97,-0.7,-0.13,-8.4,-8.65,-68.43,496
10490,-0.7,-0.72,-0.43,-43.65,-26.22,-55.51,493
10510,-0.38,-0.89,-0.45,-41.89,-11.74,-47.02,491
10530,-0.29,-1.14,-0.12,33.62,3.43,-19.86,491
10550,-0.18,-0.93,0.11,86.55,23.64,31.94,491
10570,-0.35,-0.47,0.08,39.85,-10.1,92.35,490
10590,-0.26,-0.46,-0.03,-21.7,-34.57,134.18,490
10610,-0.37,-0.78,0.04,-46.29,-55.47,160.73,490
10630,-0.29,-0.78,0.14,-36.02,-53.93,188.93,490
10650,-0.27,-0.93,0.13,2.88,-34.03,211.65,491
10671,-0.55,-0.68,0.19,15.8,-18.92,220.38,492
10690,-0.66,-0.46,0.19,-29.79,-44.25,227.57,493
10711,-0.69,-0.64,0.07,-54.25,-49.62,234.82,493
10730,-0.84,-0.77,0.03,-30.87,-33.06,221.72,492
10750,-0.97,-0.63,0.12,-3.02,-31.88,207.11,491
10770,-0.96,-0.2,0.22,-12.09,-35.97,204.06,489
10790,-1.0,-0.09,0.29,-47.41,-36.17,186.7,488
10810,-1.03,-0.41,0.18,-54.23,-37.53,148.93,488
10830,-0.96,-0.32,0.11,-19.48,-16.43,115.39,487
10850,-0.97,-0.02,0.15,3.01,-3.01,78.62,487
10870,-1.02,0.13,-0.01,-7.07,-4.6,36.41,487
10890,-0.99,0.04,0.08,-23.04,-3.62,-0.63,487
10910,-0.85,-0.2,0.07,-27.04,-3.27,-34.8,487
10930,-0.76,-0.37,0.07,-20.92,2.58,-56.95,487
10950,-0.71,-0.51,0.01,-12.35,8.5,-66.55,487
10971,-1.1,-0.21,0.14,21.65,40.47,-44.29,487
10990,-1.61,0.16,0.52,8.14,23.86,-8.41,488
11011,-0.94,0.11,0.12,-52.06,-23.07,-28.99,489
11030,-0.83,-0.15,-0.0,-87.54,-17.24,-51.21,488
11051,-0.84,-0.35,0.16,-99.48,-18.65,-30.63,487
11070,-0.84,-0.61,0.02,-38.44,13.78,-29.13,487
11090,-0.84,-0.36,0.17,12.41,30.91,-40.83,488
11110,-0.93,-0.07,0.25,-2.12,22.59,-31.18,488
11130,-0.89,-0.19,0.27,-10.44,21.92,-32.12,487
11150,-0.9,-0.31,0.19,8.38,29.52,-39.07,487
11170,-0.92,-0.12,0.08,5.54,26.01,-33.91,487
11190,-0.91,-0.2,0.03,3.05,28.18,-39.65,486
11210,-0.97,-0.15,-0.06,0.96,24.79,-36.02,486
11230,-0.96,-0.12,-0.07,-19.88,17.61,-33.53,485
11250,-0.92,-0.33,-0.01,-26.32,13.08,-35.54,485
11270,-0.86,-0.41,0.02,-15.97,14.97,-32.98,485
11290,-0.9,-0.31,0.04,-10.0,15.63,-31.42,485
11311,-0.9,-0.32,-0.02,-14.67,11.49,-28.35,485
11330,-0.89,-0.36,-0.0,-11.94,12.9,-30.2,486
11351,-0.93,-0.31,-0.0,-13.09,8.91,-24.95,485
11370,-0.88,-0.35,0.03,-19.15,5.2,-24.06,485
11390,-0.86,-0.42,0.06,-16.49,5.97,-23.27,485
11410,-0.87,-0.39,0.06,-9.07,8.21,-25.04,485
11430,-0.89,-0.28,0.02,-1.67,9.75,-25.51,484
11450,-0.93,-0.2,-0.02,-8.12,5.64,-25.09,484
11470,-0.9,-0.25,-0.01,-16.58,2.73,-27.93,485
11490,-0.89,-0.33,0.02,-15.96,2.99,-30.14,485
11510,-0.87,-0.34,0.04,-13.62,4.09,-32.06,485
11530,-0.87,-0.34,0.03,-14.15,3.86,-31.25,485
11550,-0.83,-0.37,0.07,-9.24,6.27,-34.75,486
11570,-0.87,-0.35,0.05,-2.43,6.97,-36.09,486
11590,-0.87,-0.42,-0.02,-1.83,8.5,-38.98,486
11611,-0.85,-0.45,-0.03,6.35,12.21,-39.57,486
11630,-0.86,-0.38,-0.03,10.0,13.83,-39.96,485
11651,-0.89,-0.4,-0.02,5.2,13.32,-42.61,485
11670,-0.88,-0.45,0.0,5.43,15.48,-44.9,486
11691,-0.89,-0.47,0.04,15.91,19.37,-50.29,487
11710,-0.9,-0.49,0.09,33.95,25.57,-59.19,488
11730,-1.02,-0.36,-0.03,46.73,27.74,-60.17,489
11750,-1.24,-0.34,-0.05,25.07,18.82,-59.71,489
11770,-1.13,-0.56,0.05,18.91,13.74,-67.83,490
11790,-0.96,-0.56,0.13,45.91,25.26,-77.65,490
11810,-1.0,-0.57,0.25,74.32,33.66,-89.53,492
11830,-1.0,-0.48,0.2,86.0,38.67,-91.9,493
11850,-1.05,-0.4,0.23,93.22,48.44,-95.12,494
11870,-1.04,-0.37,0.24,97.89,54.09,-100.25,496
11890,-0.95,-0.44,0.19,101.59,58.18,-102.23,497
11910,-0.9,-0.49,0.12,102.65,55.81,-102.87,497
11930,-0.92,-0.42,0.02,74.82,36.36,-94.92,497
11951,-0.96,-0.5,-0.03,37.22,14.56,-76.84,496
11970,-0.79,-0.71,-0.11,16.06,-4.97,-64.4,494
11991,-0.53,-0.77,-0.2,-5.21,-10.42,-52.58,492
12010,-0.32,-0.92,-0.37,-17.88,-30.02,-33.85,490
12030,-0.21,-0.85,-0.17,14.99,-3.38,-4.44,489
12050,-0.4,-0.7,0.1,19.66,2.27,41.31,488
12070,-0.4,-0.56,0.13,-15.7,-25.68,89.08,488
12090,-0.34,-0.66,0.06,-39.5,-45.45,127.23,488
12110,-0.38,-0.83,0.01,-31.53,-51.62,151.88,488
12130,-0.35,-0.83,0.09,-10.55,-39.41,167.95,489
12150,-0.37,-0.76,0.26,1.05,-38.65,192.09,490
12170,-0.46,-0.66,0.21,10.33,-29.33,217.1,492
12190,-0.64,-0.55,0.26,-5.04,-25.47,227.2,493
12210,-0.76,-0.51,0.27,-36.22,-41.42,239.13,494
12230,-0.79,-0.56,0.17,-54.44,-52.54,240.72,493
12251,-0.86,-0.54,0.22,-49.48,-42.54,235.52,492
12270,-0.94,-0.44,0.23,-45.64,-40.89,229.39,490
12291,-1.03,-0.24,0.25,-40.78,-32.48,214.24,489
12310,-0.97,-0.24,0.13,-32.4,-30.05,177.37,487
12331,-1.0,-0.32,-0.02,-9.89,-7.56,132.58,486
12350,-1.06,-0.09,0.09,13.17,3.32,88.61,486
12370,-1.0,0.1,-0.0,6.7,-2.49,33.52,486
12390,-0.92,0.02,0.02,-7.3,0.32,-11.19,486
12410,-0.82,-0.14,0.03,-29.73,-13.38,-50.38,485
12430,-0.74,-0.28,-0.02,-51.7,-16.72,-82.05,485
12450,-0.63,-0.69,0.12,-43.93,6.77,-94.8,485
12470,-1.72,-0.24,0.98,66.3,93.77,-0.78,486
12490,-1.2,0.49,0.09,24.98,-0.23,-22.51,490
12510,-0.88,-0.06,-0.06,-42.6,-15.85,-87.62,491
12530,-0.77,-0.12,0.26,-97.79,-17.88,-44.73,490
12550,-0.77,-0.64,-0.15,-59.47,8.85,-19.96,490
12570,-0.86,-0.97,0.08,35.43,41.75,-53.35,489
12591,-0.87,-0.2,0.31,49.77,43.22,-50.28,489
12610,-1.06,0.01,0.25,12.96,23.54,-31.24,489
12631,-0.78,-0.1,0.08,-18.89,13.74,-29.21,487
12650,-0.82,-0.43,0.03,-7.57,28.1,-36.22,486
12670,-0.99,-0.26,0.02,13.8,34.19,-35.67,487
12690,-0.98,-0.03,-0.01,-1.51,23.26,-32.67,487
12710,-0.95,-0.19,0.01,-20.75,19.1,-34.81,487
12730,-0.85,-0.4,-0.06,-25.62,14.1,-27.12,487
12750,-0.9,-0.51,0.01,-14.98,19.57,-27.38,487
12770,-0.91,-0.42,0.08,-5.94,17.19,-23.82,487
12790,-0.87,-0.39,0.11,-0.81,14.3,-24.55,487
12810,-0.9,-0.35,0.05,11.95,17.0,-25.22,487
12830,-0.95,-0.22,-0.04,16.94,18.09,-25.07,487
12850,-0.97,-0.11,0.01,8.4,12.88,-23.04,487
12870,-0.93,-0.14,0.0,-3.62,9.6,-23.53,487
12891,-0.91,-0.26,0.04,-5.27,8.87,-27.45,487
12910,-0.94,-0.3,0.03,7.89,11.43,-34.0,487
12931,-0.9,-0.14,0.03,12.65,12.65,-36.52,487
12950,-0.93,-0.11,-0.0,11.83,12.99,-40.32,487
12971,-0.94,-0.1,-0.06,3.72,8.9,-41.24,487
12990,-0.89,-0.27,-0.09,-10.02,5.0,-40.92,487
13010,-0.82,-0.44,0.02,-8.6,6.91,-44.83,487
13030,-0.82,-0.41,0.05,-0.81,9.64,-46.49,487
13050,-0.9,-0.34,-0.01,-4.02,7.17,-46.81,487
13070,-0.92,-0.33,-0.05,-17.59,1.06,-45.21,487
13090,-0.82,-0.46,0.05,-23.19,1.37,-48.84,487
13110,-0.81,-0.51,0.05,-8.75,6.91,-51.15,488
13130,-0.93,-0.42,0.03,0.35,10.99,-54.32,489
13150,-0.97,-0.38,0.03,5.08,11.89,-59.44,489
13170,-0.97,-0.41,0.02,12.64,14.47,-66.11,490
13190,-1.0,-0.48,0.01,17.62,14.71,-70.92,491
13210,-0.92,-0.52,-0.0,21.28,11.74,-74.8,492
13231,-1.05,-0.58,0.06,26.79,14.93,-78.25,492
13250,-1.09,-0.71,0.12,31.05,9.55,-79.3,492
13271,-0.79,-0.76,0.13,41.16,8.1,-79.67,492
13290,-0.85,-0.7,0.14,56.09,14.01,-78.0,492
13310,-1.0,-0.47,0.16,73.22,24.55,-82.52,493
13330,-1.02,-0.32,0.22,80.04,34.12,-88.0,494
13350,-1.07,-0.35,0.2,88.15,41.34,-94.9,495
13370,-1.01,-0.4,0.18,79.65,31.61,-94.9,496
13390,-0.87,-0.39,0.04,45.27,12.87,-90.9,496
13410,-0.88,-0.44,-0.01,10.59,-0.48,-77.51,496
13430,-0.8,-0.64,-0.04,-1.91,-10.48,-66.03,495
13450,-0.66,-0.75,-0.14,-15.64,-11.88,-56.49,494
13470,-0.41,-0.99,-0.36,-14.7,-27.29,-48.48,492
13490,-0.23,-0.99,-0.19,35.51,7.16,-28.23,491
13510,-0.33,-0.8,0.09,77.16,24.73,22.93,490
13531,-0.41,-0.54,0.18,47.45,12.39,77.77,489
13550,-0.36,-0.48,0.08,-3.28,-27.12,120.76,489
13571,-0.41,-0.7,0.09,-34.38,-38.42,148.99,489
13590,-0.38,-0.75,0.11,-34.44,-34.25,167.85,489
13611,-0.36,-0.8,0.2,-29.21,-34.98,193.75,490
13630,-0.37,-0.79,0.17,-3.57,-21.49,218.24,491
13650,-0.55,-0.69,0.18,5.59,-13.53,227.08,492
13670,-0.62,-0.57,0.22,-16.6,-27.76,240.17,493
13690,-0.71,-0.53,0.18,-37.24,-38.61,248.38,493
13710,-0.81,-0.53,0.16,-43.62,-36.71,244.38,492
13730,-0.94,-0.46,0.21,-40.76,-35.79,239.16,491
13750,-0.97,-0.34,0.27,-34.12,-30.32,225.42,489
13770,-1.01,-0.32,0.22,-23.79,-23.21,191.34,488
13790,-1.06,-0.25,0.1,-7.01,-9.84,156.93,487
13810,-1.0,-0.04,0.1,9.19,-0.75,114.39,487
13830,-1.03,0.12,0.04,11.77,4.87,64.56,487
13850,-1.05,0.19,0.05,-3.56,1.11,16.04,487
13871,-0.97,0.05,0.05,-20.93,-4.19,-28.64,487
13890,-0.93,-0.17,0.05,-35.51,-4.36,-62.63,486
13911,-0.84,-0.3,0.04,-55.35,-10.29,-84.66,486
13930,-0.76,-0.48,0.05,-59.24,-3.35,-89.31,486
13950,-1.45,-0.09,0.71,10.18,67.93,-13.85,485
13970,-1.13,0.2,0.17,-22.31,-12.69,-15.25,488
13990,-0.81,-0.21,0.05,-43.16,-11.06,-74.0,489
14010,-0.82,-0.32,0.3,-64.54,-1.7,-65.45,489
14030,-0.87,-0.4,-0.0,-45.25,7.49,-31.77,489
14050,-0.9,-0.44,-0.04,4.58,32.01,-44.66,488
14070,-0.83,0.03,0.2,0.94,37.31,-44.37,487
14090,-1.03,0.08,0.22,-35.31,25.02,-38.8,487
14110,-0.86,-0.29,0.15,-35.86,20.26,-49.59,485
14130,-0.84,-0.38,0.02,-10.73,30.15,-53.94,485
14150,-0.92,-0.15,-0.09,-1.38,31.75,-47.9,485
14171,-0.98,-0.15,-0.08,-23.54,19.78,-42.72,484
14190,-0.88,-0.33,0.04,-37.22,11.54,-43.67,485
14211,-0.84,-0.44,0.08,-27.71,14.04,-42.7,485
14230,-0.85,-0.43,0.02,-11.16,19.16,-42.67,486
14251,-0.91,-0.4,-0.05,-4.47,16.5,-37.18,486
14270,-0.85,-0.41,0.01,-7.09,13.8,-35.19,485
14290,-0.86,-0.48,0.05,2.36,17.22,-36.29,485
14310,-0.88,-0.46,0.06,5.85,14.51,-33.3,484
14330,-0.81,-0.55,0.06,8.29,17.11,-33.3,485
14350,-0.89,-0.48,0.12,19.42,17.97,-33.91,485
14370,-0.89,-0.28,-0.03,10.46,14.47,-27.27,485
14390,-0.89,-0.35,-0.03,1.04,14.1,-30.96,485
14410,-0.9,-0.4,0.02,8.58,15.81,-33.39,486
14430,-0.89,-0.39,0.09,22.81,17.69,-39.62,487
14450,-0.94,-0.33,0.21,43.74,19.32,-49.22,487
14470,-0.97,-0.15,-0.12,38.18,23.31,-41.44,488
14490,-0.92,-0.33,-0.12,24.04,22.85,-44.49,487
14511,-0.91,-0.39,-0.01,23.8,24.85,-46.19,487
14530,-0.86,-0.43,0.09,29.16,29.46,-51.12,488
14551,-0.87,-0.46,0.08,32.93,29.55,-53.53,489
14570,-0.88,-0.38,0.05,25.17,24.59,-55.06,489
14590,-0.88,-0.38,-0.02,13.49,20.07,-55.77,489
14610,-0.91,-0.48,-0.11,11.82,19.77,-58.4,490
14630,-0.86,-0.55,-0.05,18.58,20.82,-64.02,490
14650,-0.81,-0.63,0.03,23.46,20.74,-65.02,491
14670,-0.82,-0.57,0.08,32.72,24.61,-67.82,492
14690,-0.91,-0.52,0.0,40.29,27.31,-70.43,492
14710,-1.19,-0.54,0.06,41.91,29.83,-72.55,493
14730,-1.31,-0.5,0.11,52.67,27.49,-81.64,494
14750,-1.31,-0.27,0.18,78.99,39.69,-94.55,495
14770,-1.35,-0.3,0.16,79.66,34.15,-101.82,496
14790,-0.82,-0.57,0.29,74.59,20.73,-107.04,496
14811,-0.6,-0.73,0.18,74.55,15.08,-99.97,495
14830,-0.81,-0.49,-0.07,41.78,0.59,-83.27,495
14851,-1.15,-0.42,-0.07,-14.55,-25.88,-63.64,495
14870,-0.93,-0.74,0.08,-40.2,-44.48,-60.11,495
14891,-0.52,-0.74,-0.03,-18.43,-27.55,-50.84,494
14910,-0.19,-0.99,-0.46,-38.92,-33.56,-39.1,492
14930,-0.14,-0.95,-0.29,31.89,27.61,-6.98,492
14950,-0.48,-0.84,0.04,65.17,27.52,41.8,492
14970,-0.41,-0.56,0.1,50.84,4.1,88.84,491
14990,-0.3,-0.56,0.08,6.26,-27.94,133.77,490
15010,-0.3,-0.78,-0.07,-16.37,-44.71,163.88,490
15030,-0.41,-0.76,0.09,-10.83,-41.7,188.09,490
15050,-0.4,-0.74,0.21,-12.51,-51.52,215.54,490
15070,-0.36,-0.72,0.14,-2.26,-46.52,237.83,490
15090,-0.54,-0.58,0.19,-11.64,-38.63,251.77,490
15110,-0.7,-0.45,0.22,-63.68,-69.16,263.6,491
15130,-0.71,-0.55,0.14,-95.64,-89.85,269.94,490
15151,-0.89,-0.58,0.14,-89.99,-73.74,267.27,489
15170,-1.15,-0.43,0.29,-87.7,-71.65,247.46,488
15191,-1.02,-0.3,0.3,-88.03,-71.9,212.01,486
15210,-0.88,-0.25,0.15,-79.71,-55.33,171.13,486
15230,-0.93,-0.37,0.01,-34.96,-20.37,116.61,486
15250,-0.9,-0.18,0.01,13.71,3.81,69.59,488
15270,-1.03,0.12,-0.01,20.58,11.45,19.45,488
15290,-0.96,0.06,-0.0,5.14,10.09,-27.35,488
15310,-0.71,-0.21,-0.04,1.85,21.06,-64.08,487
15330,-0.78,-0.22,-0.01,-19.04,18.3,-80.67,485
15350,-1.02,-0.08,0.53,-12.55,48.3,-60.66,484
15370,-2.0,0.2,1.16,-15.83,-5.47,25.95,486
15390,-0.69,0.23,0.09,-87.07,-63.91,-34.34,486
15410,-0.57,-0.58,0.05,-104.93,-0.87,-84.98,486
15430,-1.01,-0.75,-0.05,-85.86,-8.07,-19.12,486
15451,-0.8,-0.73,-0.11,4.15,41.86,-35.41,486
15470,-0.75,-0.24,0.35,10.36,42.87,-33.47,485
15491,-1.0,-0.02,0.41,-12.54,31.37,-22.96,486
15510,-0.89,-0.15,0.27,-32.03,12.77,-22.77,485
15531,-0.86,-0.48,-0.06,-3.77,30.93,-28.98,485
15550,-1.03,-0.26,-0.17,16.3,30.76,-24.6,485
15570,-1.01,-0.07,-0.12,-0.8,23.6,-21.56,484
15590,-0.95,-0.16,0.07,-18.2,14.91,-22.12,484
15610,-0.92,-0.26,0.19,-18.11,7.93,-24.35,485
15630,-0.89,-0.27,0.03,-13.99,8.48,-22.78,485
15650,-0.93,-0.37,-0.06,-10.9,9.6,-17.06,485
15670,-0.91,-0.41,0.03,-2.06,8.56,-15.53,485
15690,-0.89,-0.33,0.14,3.6,9.93,-14.34,486
15710,-0.88,-0.31,0.14,-0.72,8.04,-9.65,486
15730,-0.9,-0.31,0.08,0.64,8.88,-9.19,486
15750,-0.97,-0.27,0.06,2.94,8.93,-12.93,486
15770,-0.83,-0.32,0.17,7.88,10.15,-14.12,486
15791,-0.96,-0.31,0.08,6.98,9.9,-11.54,486
15810,-0.89,-0.29,-0.02,6.11,7.93,-13.3,485
15831,-0.98,-0.17,-0.04,4.23,6.45,-11.9,485
15850,-1.03,-0.26,-0.01,-5.25,-2.37,-14.28,485
15870,-0.9,-0.42,0.02,-9.53,-4.36,-8.87,485
15890,-0.79,-0.46,0.12,-3.12,0.45,-3.88,485
15910,-0.84,-0.33,0.19,0.93,3.34,0.98,485
15930,-0.93,-0.31,0.15,-7.68,-3.04,4.53,485
15950,-0.87,-0.33,0.06,-8.25,-4.2,5.49,486
15970,-0.88,-0.29,0.04,5.05,4.24,2.98,486
15990,-0.95,-0.17,0.05,18.73,9.23,3.3,486
16010,-0.97,0.01,0.06,9.95,5.11,2.27,486
16030,-0.99,-0.02,0.06,-3.24,2.0,-2.28,486
16050,-0.96,-0.12,0.08,-7.1,-0.95,-4.83,486
16070,-0.9,-0.25,0.06,-8.92,-2.07,-6.23,486
16091,-0.89,-0.38,0.07,-5.09,0.97,-6.03,486
16110,-0.88,-0.37,0.08,2.21,3.52,-4.28,486
16131,-0.9,-0.26,0.08,1.39,2.09,-2.66,486
16150,-0.93,-0.24,0.05,-2.54,0.12,-2.4,486
16171,-0.93,-0.27,0.06,-0.76,1.23,-5.07,486
16190,-0.9,-0.31,0.06,2.01,2.55,-3.54,486
16210,-0.9,-0.32,0.07,1.77,3.55,-2.93,486
16230,-0.91,-0.3,0.07,0.01,2.67,-1.9,486
16250,-0.94,-0.25,0.07,0.36,1.75,-2.73,486
16270,-0.92,-0.2,0.03,-1.33,1.31,-1.15,486
16290,-0.91,-0.26,0.05,-1.94,2.27,-2.28,486
16310,-0.93,-0.29,0.08,1.01,2.9,-3.21,486
16330,-0.9,-0.27,0.07,0.52,2.01,-2.37,486
16350,-0.91,-0.27,0.06,-1.93,1.52,-2.52,486
16370,-0.92,-0.29,0.05,-4.55,-0.37,-1.8,486
