Time,AccX,AccY,AccZ,GyroX,GyroY,GyroZ,Capacitance

7266,-0.94,-0.57,0.1,-61.28,-70.74,49.31,493

7286,-0.78,-0.72,0.13,-24.64,-60.48,64.92,490

7306,-0.81,-0.6,0.14,14.24,-43.06,80.59,490

7326,-0.82,-0.3,0.2,33.4,-41.96,108.42,489

7346,-0.72,-0.26,0.06,26.92,-35.04,93.06,488

7366,-0.93,-0.36,0.06,36.21,-21.47,83.79,486

7387,-0.91,-0.23,0.14,35.07,-36.38,88.41,485

7406,-0.84,-0.23,0.11,29.02,-27.01,77.49,484

7427,-0.92,-0.13,0.2,24.05,-28.11,69.89,484

7446,-0.75,0.01,0.07,1.4,-34.25,59.38,483

7467,-1.0,-0.17,0.2,-17.94,-24.48,39.28,483

7486,-0.88,-0.13,0.15,-37.42,-34.26,27.52,483

7506,-0.85,-0.01,0.04,-55.76,-27.94,-1.96,483

7526,-0.85,-0.07,0.07,-79.45,-24.32,-10.01,483

7546,-0.8,-0.28,-0.02,-84.79,-14.84,-28.61,483

7566,-0.6,-0.64,-0.1,-71.45,6.53,-62.27,482

7586,-0.61,-0.92,-0.04,-5.5,36.18,-50.14,482

7606,-0.96,-0.53,0.39,74.21,50.73,3.52,482

7626,-1.54,0.07,0.45,65.94,38.85,7.73,486

7646,-1.11,0.2,0.16,-9.01,17.68,-35.95,485

7666,-0.62,-0.25,0.05,-40.4,27.78,-44.75,484

7686,-0.86,-0.52,-0.07,0.24,36.93,-18.42,484

7706,-1.15,-0.19,-0.08,6.66,25.72,-16.11,485

7727,-0.97,-0.03,-0.07,-25.15,17.26,-26.23,484

7746,-0.94,-0.14,-0.06,-50.87,8.62,-15.87,484

7767,-0.83,-0.42,0.1,-55.36,7.0,-21.6,484

7786,-0.84,-0.5,0.14,-35.97,15.42,-19.93,484

7806,-0.89,-0.28,0.07,-29.33,10.94,-8.23,485

7826,-0.88,-0.27,-0.01,-37.13,13.22,-6.0,484

7846,-0.96,-0.25,0.0,-39.76,11.6,-13.97,484

7866,-0.91,-0.33,-0.01,-34.5,13.29,-10.54,484

7886,-0.85,-0.46,-0.05,-27.31,13.97,-14.63,483

7906,-0.85,-0.54,-0.0,-16.15,17.69,-4.07,483

7926,-0.88,-0.42,-0.02,-9.36,15.63,-17.23,484

7946,-0.9,-0.38,-0.06,-13.76,12.45,-1.24,483

7966,-0.86,-0.4,0.01,-14.57,10.32,-6.16,483

7986,-0.91,-0.32,0.07,-5.94,13.26,-0.8,483

8006,-0.9,-0.23,0.08,-2.21,16.36,-1.72,483

8027,-0.92,-0.23,0.06,-0.82,18.32,-14.75,483

8046,-0.91,-0.18,0.03,2.52,22.41,-18.52,482

8067,-0.93,-0.17,-0.02,-0.34,21.48,-21.94,483

8086,-0.9,-0.24,-0.03,-4.34,20.64,-14.37,483

8107,-0.91,-0.28,0.05,-2.24,21.75,-25.37,482

8126,-0.87,-0.27,-0.02,4.0,26.15,-39.7,483

8146,-0.95,-0.3,-0.1,3.92,26.01,-32.25,483

8166,-0.87,-0.44,-0.14,3.43,22.67,-40.38,483

8186,-0.85,-0.53,-0.07,23.25,31.25,-44.26,483

8206,-0.84,-0.54,0.13,50.21,38.24,-50.26,484

8226,-0.86,-0.37,0.1,72.3,54.82,-48.37,485

8246,-0.96,-0.11,0.02,77.43,58.45,-61.3,486

8266,-1.05,-0.05,-0.09,71.63,60.01,-73.13,486

8286,-1.11,-0.28,-0.0,64.5,58.39,-75.41,487

8306,-1.06,-0.5,0.08,80.9,67.07,-91.1,489

8326,-1.25,-0.47,0.18,112.75,84.06,-98.58,492

8346,-1.48,-0.16,0.38,126.73,86.13,-83.41,495

8367,-1.25,-0.04,0.41,84.11,66.3,-107.73,497

8386,-1.09,-0.18,0.26,33.39,59.39,-111.28,498

8407,-0.92,-0.32,-0.02,-26.87,23.84,-89.47,500

8426,-0.65,-0.49,-0.29,-88.05,-1.41,-66.99,500

8446,-0.67,-0.99,-0.27,-83.47,31.48,-67.46,501

8466,-0.66,-1.27,-0.19,-21.48,26.79,-59.35,501

8486,-0.47,-0.87,-0.14,43.71,16.45,8.89,501

8506,-0.42,-0.6,-0.18,46.99,-4.03,61.0,501

8526,-0.4,-0.55,-0.14,46.47,-20.66,103.7,500

8546,-0.51,-0.66,-0.14,43.95,-49.67,143.53,500

8566,-0.52,-0.63,-0.11,42.34,-77.19,172.24,499

8586,-0.61,-0.66,-0.06,21.48,-109.12,187.82,498

8606,-0.64,-0.71,-0.05,-1.22,-133.07,209.19,496

8626,-0.7,-0.64,0.09,-20.4,-144.55,208.51,493

8646,-0.61,-0.55,0.19,-47.97,-147.19,214.92,491

8667,-0.69,-0.63,0.03,-48.61,-123.22,210.6,488

8686,-1.0,-0.63,0.2,-11.37,-115.42,188.08,485

8707,-0.79,-0.42,0.08,20.75,-85.61,158.09,483

8726,-0.95,-0.15,0.01,42.53,-40.11,98.35,482

8747,-0.9,0.28,0.08,17.48,-36.75,81.14,483

8766,-0.64,0.11,-0.05,-0.46,-3.67,-4.14,482

8786,-0.74,-0.04,-0.07,-21.3,16.35,-44.67,482

8806,-0.45,-0.43,-0.24,-28.78,44.85,-92.7,482

8826,-1.36,-0.48,0.57,34.01,84.81,-37.97,481

8846,-1.82,-0.02,0.22,-1.65,-6.45,31.88,486

8866,-0.76,0.05,-0.06,-49.33,31.29,-76.72,484

8886,-0.75,-0.54,-0.19,-100.21,25.03,-82.78,484

8906,-0.67,-0.94,-0.28,-37.01,30.15,-26.98,483

8926,-0.9,-0.69,-0.03,24.52,40.09,-33.69,485

8946,-0.9,-0.28,0.11,13.89,35.23,-35.9,486

8966,-0.91,-0.29,0.05,-10.34,29.19,-31.24,485

8986,-0.82,-0.51,-0.09,-5.89,35.28,-26.01,486

9007,-0.98,-0.5,-0.12,20.01,36.03,-18.59,485

9026,-0.92,-0.22,-0.09,25.11,28.58,-27.44,485

9047,-0.91,-0.16,0.04,8.08,22.59,-5.33,485

9066,-0.98,-0.14,0.06,-13.99,17.4,-18.64,485

9086,-0.87,-0.29,-0.01,-19.33,16.65,-20.69,484

9106,-0.87,-0.35,0.01,-5.8,21.81,-28.0,483

9126,-0.95,-0.16,0.01,-0.31,21.78,-25.46,484

9146,-0.91,-0.12,0.01,-9.6,18.35,-24.33,483

9166,-0.92,-0.15,-0.02,-23.36,16.21,-28.1,483

9186,-0.91,-0.3,-0.05,-28.9,14.12,-25.68,483

9206,-0.88,-0.42,-0.04,-20.95,15.57,-32.51,483

9226,-0.88,-0.39,-0.01,-6.81,19.34,-30.39,483

9246,-0.91,-0.25,-0.04,-7.56,18.74,-30.65,482

9266,-0.89,-0.29,-0.03,-13.62,18.36,-35.05,482

9286,-0.86,-0.44,-0.0,-4.93,21.51,-46.66,482

9307,-0.84,-0.4,0.03,8.43,26.55,-36.98,482

9326,-0.88,-0.3,0.01,11.3,28.97,-52.17,482

9347,-0.87,-0.23,0.05,12.05,32.76,-57.37,483

9366,-0.88,-0.19,0.12,21.76,39.0,-71.61,485

9387,-1.09,-0.13,0.11,44.98,60.82,-86.64,488

9406,-1.41,-0.13,0.25,68.11,72.04,-98.02,491

9426,-1.63,-0.22,0.44,99.19,88.42,-144.94,496

9446,-1.76,-0.17,0.48,128.78,102.03,-150.71,500

9466,-1.51,-0.01,0.27,100.95,74.76,-141.37,502

9486,-1.11,-0.16,-0.05,19.05,49.43,-126.99,502

9506,-0.65,-0.46,-0.38,-95.83,-26.48,-93.86,502

9526,-0.14,-0.87,-0.56,-121.7,1.65,-80.14,500

9546,-0.4,-1.44,-0.21,-61.51,33.43,-65.49,501

9566,-0.54,-1.27,-0.12,29.54,-10.87,7.92,501

9586,-0.28,-0.72,-0.25,56.87,-28.34,43.59,501

9606,-0.27,-0.45,-0.19,41.51,-37.77,88.77,501

9626,-0.38,-0.63,-0.23,16.84,-63.68,134.79,500

9647,-0.43,-0.78,-0.18,14.55,-80.98,165.4,499

9666,-0.48,-0.76,-0.09,17.94,-102.26,176.7,498

9687,-0.5,-0.66,-0.1,1.02,-122.74,187.25,497

9706,-0.63,-0.58,-0.05,-21.63,-130.34,216.69,495

9726,-0.76,-0.59,0.0,-50.05,-133.8,209.96,492

9746,-0.73,-0.73,0.02,-51.94,-129.32,195.2,489

9766,-0.78,-0.65,0.08,-23.74,-108.77,196.23,486

9786,-0.85,-0.51,0.14,23.59,-80.4,185.36,483

9806,-0.77,-0.35,-0.05,45.08,-59.93,148.98,480

9826,-0.9,-0.14,0.01,59.47,-20.54,114.26,479

9846,-0.84,0.03,0.11,56.05,-12.34,73.43,479

9866,-0.81,0.13,0.09,49.02,11.16,39.25,479

9886,-0.93,0.13,0.11,19.02,16.16,-6.16,479

9906,-0.83,-0.0,0.07,-15.47,20.29,-41.06,479

9926,-0.78,-0.12,0.01,-53.07,17.58,-75.98,480

9947,-0.87,-0.33,0.31,-74.9,18.03,-66.39,480

9966,-1.53,-0.45,0.8,-47.6,27.4,-1.09,481

9987,-1.17,-0.43,0.15,-44.57,-8.06,-59.93,484

10006,-0.67,-0.48,-0.13,-39.19,44.96,-80.56,483

10027,-0.83,-0.5,-0.2,-37.51,24.55,-32.81,483

10046,-0.86,-0.45,-0.21,10.2,41.49,-12.41,483

10066,-0.94,-0.28,0.08,5.02,23.23,-30.82,484

10086,-0.84,-0.33,0.16,-18.66,35.36,-33.59,484

10106,-0.96,-0.49,-0.1,-8.17,29.51,-29.41,484

10126,-0.89,-0.35,-0.2,4.4,27.71,-25.36,483

10146,-0.96,-0.25,-0.04,8.03,26.93,-21.53,483

10166,-0.99,-0.12,-0.01,-0.18,19.08,-21.73,483

10186,-0.91,-0.18,-0.0,-22.43,12.12,-28.86,483

10206,-0.86,-0.34,0.05,-24.26,16.82,-31.3,482

10226,-0.87,-0.32,0.04,-8.34,20.2,-16.92,482

10246,-0.95,-0.19,-0.04,-4.09,21.31,-21.35,483

10266,-0.9,-0.21,-0.03,-13.28,16.5,-19.52,482

10287,-0.88,-0.3,0.03,-14.69,17.14,-16.65,481

10306,-0.93,-0.25,0.0,-12.96,18.56,-27.15,481

10327,-0.9,-0.26,-0.04,-13.51,17.23,-38.01,481

10346,-0.91,-0.24,0.0,-10.75,21.36,-28.66,481

10366,-0.94,-0.18,0.01,-11.65,20.27,-32.21,481

10386,-0.92,-0.21,-0.06,-7.19,22.71,-40.71,480

10406,-0.91,-0.23,-0.02,-2.69,24.47,-39.38,480

10426,-0.93,-0.25,0.02,-1.28,24.97,-46.16,480

10446,-0.89,-0.18,0.04,5.31,29.22,-52.08,481

10466,-0.88,-0.07,0.09,10.09,35.11,-63.71,482

10486,-0.97,-0.03,0.07,8.96,40.2,-74.08,484

10506,-1.14,-0.17,0.11,18.72,47.26,-91.56,487

10526,-1.25,-0.59,0.41,56.44,76.91,-130.48,491

10546,-1.43,-0.74,0.52,116.61,105.89,-145.78,495

10566,-1.54,-0.35,0.45,159.14,110.13,-145.5,500

10587,-1.25,0.08,0.07,96.3,82.39,-125.87,501

10606,-0.8,-0.07,-0.25,-16.44,21.43,-103.2,501

10627,-0.47,-0.7,-0.49,-90.09,18.53,-104.68,500

10646,-0.67,-1.17,-0.21,-57.27,39.34,-87.42,500

10667,-0.68,-1.24,-0.16,11.53,13.03,-24.03,501

10686,-0.44,-0.74,-0.14,52.14,-7.88,13.01,500

10706,-0.4,-0.52,-0.19,39.72,-22.31,45.62,500

10726,-0.45,-0.52,-0.18,17.5,-43.59,99.63,500

10746,-0.48,-0.68,-0.19,2.9,-65.85,134.75,499

10766,-0.46,-0.77,-0.16,6.49,-80.71,161.62,498

10786,-0.48,-0.8,-0.12,17.82,-94.78,182.13,497

10806,-0.55,-0.75,-0.08,22.67,-105.35,186.85,496

10826,-0.65,-0.63,0.04,9.13,-114.45,203.38,495

10846,-0.68,-0.59,0.14,-14.43,-121.16,213.99,492

10866,-0.71,-0.5,0.2,-31.19,-121.61,218.92,488

10886,-0.86,-0.39,0.19,-39.76,-111.64,222.1,485

10906,-1.04,-0.46,-0.01,-20.06,-91.76,182.73,482

10927,-1.04,-0.18,0.08,-5.57,-88.11,162.24,479

10946,-0.78,0.0,0.07,4.99,-44.08,98.39,478

10967,-0.83,-0.02,0.02,9.8,-14.61,57.13,478

10986,-0.8,0.02,0.02,13.27,6.73,8.57,478

11006,-0.73,0.03,-0.08,-10.26,21.57,-49.14,479

11026,-0.68,-0.15,-0.11,-44.09,29.6,-86.32,479

11046,-0.7,-0.51,0.19,-52.95,32.06,-93.18,479

11066,-1.62,-0.38,0.9,-14.35,30.61,21.12,480

11086,-1.25,-0.12,0.19,-16.79,8.16,-39.64,484

11106,-0.91,-0.27,-0.12,-53.47,41.51,-84.55,484

11126,-0.74,-0.59,-0.14,-57.74,17.34,-54.12,483

11146,-0.6,-0.54,-0.13,3.8,40.38,-8.03,483

11166,-1.08,-0.25,0.1,-1.5,30.06,-31.23,485

11186,-0.91,-0.17,0.05,-40.55,22.67,-20.69,484

11206,-0.83,-0.44,-0.03,-46.26,20.61,-19.75,484

11227,-0.88,-0.55,-0.12,-22.43,26.44,-41.13,484

11246,-0.96,-0.43,-0.06,6.24,30.49,-19.16,483

11267,-0.94,-0.21,-0.03,15.83,27.58,-27.78,484

11286,-0.92,-0.14,0.03,3.08,23.49,-26.31,484

11307,-0.95,-0.14,0.06,-13.66,22.61,-31.07,484

11326,-0.92,-0.22,-0.02,-15.94,20.1,-21.94,484

11346,-0.86,-0.3,-0.01,-6.14,24.16,-23.6,484

11366,-0.87,-0.33,0.04,1.36,27.25,-21.67,483

11386,-0.92,-0.29,0.0,3.71,30.42,-28.54,483

11406,-0.93,-0.27,-0.01,-3.36,25.07,-31.15,483

11426,-0.83,-0.36,-0.0,-6.4,24.73,-28.42,483

11446,-0.91,-0.37,0.01,-2.12,24.7,-22.73,483

11466,-0.89,-0.31,-0.03,-6.99,19.66,-22.22,484

11486,-0.88,-0.34,-0.1,-11.11,21.54,-32.31,483

11506,-0.89,-0.32,-0.02,-1.41,23.54,-28.2,483

11526,-0.95,-0.29,0.06,11.37,29.75,-32.6,483

11546,-0.95,-0.12,0.02,11.57,28.62,-42.45,484

11567,-0.87,-0.06,0.03,2.17,28.68,-43.93,484

11586,-0.83,-0.24,0.27,9.65,38.9,-76.65,486

11607,-0.79,-0.44,0.12,45.85,64.38,-91.05,488

11626,-1.19,-0.4,-0.05,73.18,84.47,-90.55,491

11646,-1.41,-0.5,0.08,96.88,85.58,-121.01,494

11666,-1.6,-0.23,0.34,137.77,107.07,-119.53,497

11686,-1.78,0.07,0.56,144.3,83.33,-121.05,500

11706,-1.65,0.04,0.45,73.05,45.39,-131.58,502

11726,-0.97,-0.26,0.06,-14.08,33.72,-109.47,502

11746,-0.65,-0.58,-0.31,-86.06,-3.65,-99.84,501

11766,-0.38,-0.76,-0.5,-113.28,-5.03,-87.47,500

11786,-0.49,-1.07,-0.37,-83.79,11.86,-63.76,500

11806,-0.44,-1.1,-0.27,-15.56,-9.65,-7.63,501

11826,-0.15,-0.97,-0.21,33.16,-29.55,30.11,501

11846,-0.17,-0.68,-0.12,48.76,-48.9,110.44,501

11867,-0.09,-0.73,-0.21,49.74,-73.44,164.18,501

11886,-0.24,-0.74,-0.18,50.89,-82.97,192.9,499

11907,-0.41,-0.7,-0.19,46.21,-109.7,221.73,498

11926,-0.53,-0.6,-0.15,11.42,-126.46,237.67,496

11947,-0.73,-0.56,0.04,-22.99,-141.65,249.86,493

11966,-0.89,-0.54,0.17,-55.99,-156.84,244.38,490

11986,-0.92,-0.43,0.23,-73.3,-150.03,230.55,486

12006,-1.05,-0.64,0.07,-42.64,-108.83,191.62,483

12026,-0.98,-0.36,0.11,1.54,-100.66,171.49,480

12046,-0.66,0.01,0.15,45.57,-30.97,95.84,479

12066,-0.92,0.27,0.02,37.21,-6.86,37.46,480

12086,-0.8,0.3,0.03,5.05,7.29,-19.68,480

12106,-0.65,0.06,-0.07,-40.84,20.67,-79.44,481

12126,-0.41,-0.48,-0.11,-71.28,29.6,-109.68,480

12146,-0.97,-0.59,0.68,-7.8,63.66,-29.77,479

12166,-1.93,-0.34,0.64,33.5,21.22,35.31,486

12186,-1.07,0.21,-0.14,-7.73,36.42,-88.6,485

12207,-0.84,-0.14,-0.22,-87.13,28.35,-85.54,484

12226,-0.55,-0.65,-0.33,-51.97,22.82,-37.63,483

12247,-0.93,-0.68,-0.05,14.82,47.31,-35.34,484

12266,-0.95,-0.23,0.13,-0.09,21.78,-34.91,486

12286,-0.87,-0.23,0.13,-37.44,30.1,-30.14,486

12306,-0.81,-0.47,-0.02,-43.45,25.6,-25.0,485

12326,-0.81,-0.71,-0.07,-9.91,36.52,-30.41,484

12346,-0.97,-0.61,-0.08,34.76,44.27,-29.49,485

12366,-0.96,-0.12,-0.07,33.6,34.06,-27.34,485

12386,-0.91,-0.07,0.03,5.08,30.27,-26.71,485

12406,-0.94,-0.3,0.0,-2.99,30.35,-31.14,485

12426,-0.89,-0.32,-0.04,3.6,27.2,-20.48,485

12446,-0.92,-0.28,-0.04,1.42,26.61,-21.37,484

12466,-0.91,-0.31,-0.01,3.8,25.68,-40.05,484

12486,-0.92,-0.24,-0.02,2.41,22.26,-25.35,484

12507,-0.84,-0.26,-0.03,-5.59,19.68,-27.67,484

12526,-0.91,-0.24,-0.01,-12.63,19.08,-32.4,484

12547,-0.93,-0.26,-0.03,-11.94,18.53,-30.98,485

12566,-0.89,-0.33,-0.04,-14.7,17.25,-36.92,485

12587,-0.82,-0.42,-0.02,-11.3,18.53,-41.82,485

12606,-0.88,-0.33,-0.06,-6.67,18.88,-34.91,485

12626,-0.87,-0.36,-0.04,-8.05,20.67,-40.04,485

12646,-0.85,-0.46,-0.01,4.4,30.21,-40.06,485

12666,-0.89,-0.36,-0.02,21.83,35.8,-49.08,486

12686,-0.91,-0.27,-0.03,22.66,39.55,-56.62,486

12706,-0.92,-0.34,-0.02,24.11,44.78,-55.93,488

12726,-1.0,-0.29,0.05,35.1,52.88,-70.45,490

12746,-1.37,-0.23,0.22,58.12,70.13,-85.72,493

12766,-1.75,-0.41,0.47,86.78,80.38,-130.71,497

12786,-1.45,-0.24,0.6,116.44,80.73,-142.87,500

12806,-1.37,-0.08,0.41,103.14,83.34,-131.46,503

12826,-1.28,-0.16,-0.1,37.07,50.32,-95.73,503

12847,-0.75,-0.4,-0.45,-60.37,-3.24,-84.33,502

12866,-0.38,-0.62,-0.5,-114.15,-13.64,-82.23,501

12887,-0.49,-1.14,-0.37,-87.91,23.13,-61.79,501

12906,-0.39,-1.25,-0.25,-9.8,-1.33,-25.38,501

12926,-0.22,-0.98,-0.28,53.14,-15.79,19.54,502

12946,-0.26,-0.52,-0.1,67.21,-33.5,93.1,501

12966,-0.17,-0.6,-0.26,36.92,-59.91,133.13,501

12986,-0.3,-0.69,-0.21,33.69,-67.16,169.73,500

13006,-0.46,-0.69,-0.17,18.96,-91.36,206.69,499

13026,-0.44,-0.74,-0.19,6.17,-112.9,215.75,497

13046,-0.62,-0.69,-0.12,-8.0,-117.36,234.06,495

13066,-0.79,-0.56,0.01,-45.07,-137.29,242.87,493

13086,-0.83,-0.5,-0.06,-75.97,-138.93,225.91,489

13106,-0.99,-0.56,0.07,-72.86,-139.41,208.9,486

13126,-0.94,-0.59,0.15,-25.82,-103.44,159.53,483

13147,-0.68,-0.29,0.14,4.3,-56.72,135.44,481

13166,-0.8,-0.14,-0.08,22.24,-14.58,75.88,481

13187,-0.87,-0.02,0.06,23.47,-2.58,32.42,481

13206,-0.75,0.04,0.04,9.53,19.75,-12.12,482

13227,-0.78,-0.07,-0.04,-31.08,22.13,-67.65,482

13246,-0.73,-0.45,0.27,-49.89,23.1,-77.78,482

13266,-1.53,-0.29,0.78,-17.42,38.04,-0.89,482

13286,-1.4,-0.15,0.19,-28.17,-7.68,-29.2,485

13306,-0.67,-0.32,-0.19,-52.21,33.28,-78.3,484

13326,-0.71,-0.56,-0.12,-63.6,20.04,-55.58,483

13346,-0.74,-0.71,-0.14,-3.24,33.95,-9.57,483

13366,-0.98,-0.39,0.03,13.89,31.92,-18.77,485

13386,-0.9,-0.13,0.11,-16.63,26.24,-31.16,484

13406,-0.88,-0.36,0.03,-26.02,26.04,-20.97,484

13426,-0.88,-0.4,-0.1,-10.95,29.49,-23.63,484

13446,-0.96,-0.34,-0.11,4.46,34.38,-35.1,484

13466,-0.94,-0.2,-0.02,10.46,31.17,-25.7,484

13487,-0.95,-0.14,-0.04,4.05,31.86,-25.61,485

13506,-0.96,-0.19,0.0,-5.19,26.3,-33.82,484

13527,-0.88,-0.37,-0.03,-1.59,28.27,-41.96,484

13546,-0.86,-0.4,0.0,5.47,25.72,-25.41,484

13566,-0.85,-0.38,0.01,11.79,29.98,-33.44,484

13586,-0.91,-0.28,-0.01,14.82,30.42,-25.09,483

13606,-0.94,-0.18,-0.01,7.65,23.45,-22.1,484

13626,-0.88,-0.27,0.04,2.32,25.03,-38.01,484

13646,-0.96,-0.29,-0.03,11.39,29.26,-40.85,485

13666,-0.88,-0.33,-0.09,7.08,20.52,-34.59,485

13686,-0.9,-0.45,-0.03,1.08,25.94,-41.94,485

13706,-0.94,-0.47,0.04,6.92,25.71,-44.57,485

13726,-0.83,-0.41,0.04,21.59,31.42,-39.34,485

13746,-0.85,-0.36,0.07,35.45,40.7,-59.31,486

13766,-1.02,-0.2,0.13,48.34,52.55,-62.05,488

13787,-1.1,0.0,0.15,56.08,62.07,-84.09,490

13806,-1.23,-0.02,0.22,50.26,62.64,-94.08,493

13827,-1.5,-0.18,0.39,62.35,71.43,-130.69,496

13846,-2.0,-0.32,0.59,108.26,92.35,-138.26,501

13867,-1.42,-0.09,0.15,104.59,72.18,-130.2,503

13886,-0.85,-0.11,-0.33,9.94,37.11,-101.55,502

13906,-0.52,-0.3,-0.58,-113.44,-28.31,-94.76,501

13926,-0.44,-0.8,-0.56,-135.8,-17.07,-85.04,500

13946,-0.32,-1.33,-0.33,-73.77,-20.89,-56.06,501

13966,-0.14,-1.29,-0.28,10.49,-14.02,-7.75,502

13986,-0.29,-0.76,-0.03,67.14,-35.44,47.73,501

14006,-0.28,-0.57,-0.21,59.88,-61.16,86.24,501

14026,-0.38,-0.43,-0.19,26.79,-75.56,140.75,500

14046,-0.46,-0.55,-0.19,-6.52,-99.29,170.22,498

14066,-0.53,-0.72,-0.16,-21.5,-115.0,180.94,497

14086,-0.68,-0.84,-0.08,-4.92,-122.23,198.61,495

14106,-0.8,-0.73,-0.05,-3.33,-128.72,218.53,493

14127,-0.84,-0.41,0.09,-37.33,-128.19,220.87,490

14146,-0.89,-0.31,0.09,-62.75,-118.92,211.5,487

14167,-0.88,-0.45,0.06,-36.76,-103.67,178.74,483

14186,-0.78,-0.62,-0.04,9.71,-66.32,146.83,481

14206,-0.92,-0.21,0.12,40.05,-43.55,124.18,479

14226,-0.78,0.04,0.15,35.04,-20.22,104.83,479

14246,-0.86,-0.01,0.13,36.73,3.89,51.92,479

14266,-0.84,0.18,0.18,22.35,9.77,15.64,479

14286,-0.74,0.23,0.09,-11.99,23.28,-27.57,479

14306,-0.78,0.08,-0.03,-54.9,21.03,-65.1,479

14326,-0.78,-0.26,0.14,-85.88,20.61,-83.93,480

14346,-1.29,-0.53,0.7,-49.18,49.8,-37.67,480

14366,-1.66,-0.3,0.47,-36.28,-12.67,-4.55,486

14386,-0.66,-0.25,-0.05,-45.94,33.29,-78.73,484

14406,-0.81,-0.33,-0.19,-77.16,29.2,-60.7,483

14427,-0.67,-0.66,-0.33,-23.15,33.17,-24.89,483

14446,-0.99,-0.64,-0.22,32.26,48.49,-33.75,485

14467,-0.91,-0.35,0.13,25.8,34.09,-38.4,485

14486,-0.91,-0.33,0.1,4.4,34.62,-25.78,484

14507,-0.89,-0.23,-0.17,-13.92,27.57,-38.15,485

14526,-0.94,-0.38,-0.14,-5.82,31.51,-34.68,484

14546,-0.95,-0.35,-0.07,16.96,28.3,-30.3,484

14566,-0.9,-0.24,-0.07,8.12,21.33,-23.05,485

14586,-0.82,-0.39,0.05,-4.57,21.81,-27.43,484

14606,-0.88,-0.46,0.05,4.38,24.27,-23.12,484

14626,-0.91,-0.34,-0.06,10.18,21.33,-12.03,484

14646,-0.89,-0.29,-0.02,7.82,22.74,-27.19,484

14666,-0.94,-0.23,-0.01,10.58,22.47,-26.19,484

14686,-0.91,-0.16,0.04,4.56,18.38,-27.47,484

14706,-0.93,-0.2,0.08,1.76,21.66,-21.82,484

14726,-0.96,-0.11,0.08,3.42,22.26,-38.29,484

14746,-0.98,-0.07,0.01,6.18,25.28,-38.12,485

14767,-0.97,-0.09,0.03,0.47,21.28,-34.83,485

14786,-0.84,-0.25,0.03,-1.63,25.6,-52.44,485

14807,-0.84,-0.35,0.04,12.53,34.15,-55.9,486

14826,-0.9,-0.25,-0.01,18.79,36.29,-64.63,486

14846,-0.92,-0.21,0.0,16.41,40.2,-71.01,488

14866,-0.95,-0.27,0.14,28.85,56.07,-89.78,490

14886,-1.23,-0.21,0.2,72.87,86.26,-109.34,493

14906,-2.0,-0.26,0.52,125.22,111.1,-110.33,499

14926,-1.83,-0.09,0.56,123.56,68.73,-159.65,503

14946,-1.24,-0.01,0.2,61.51,79.46,-128.94,503

14966,-1.01,-0.4,-0.3,-48.98,15.66,-102.97,502

14986,-0.45,-0.62,-0.64,-128.28,-40.17,-82.11,500

15006,-0.17,-1.07,-0.43,-114.26,5.98,-57.32,499

15026,-0.39,-1.44,-0.18,-32.73,-0.13,-23.01,500

15046,-0.09,-1.2,-0.13,61.13,-31.24,48.04,500

15067,-0.11,-0.63,-0.08,82.75,-42.8,93.6,500

15086,-0.14,-0.44,-0.18,54.29,-69.36,147.92,500

15107,-0.32,-0.56,-0.22,24.81,-91.97,187.79,498

15126,-0.42,-0.66,-0.19,0.63,-114.45,201.73,497

15147,-0.62,-0.76,-0.13,-15.82,-129.24,218.75,495

15166,-0.82,-0.66,-0.05,-25.02,-145.45,234.09,492

15186,-0.94,-0.38,-0.11,-65.16,-143.39,223.93,489

15206,-1.22,-0.41,-0.01,-81.31,-139.1,189.22,486

15226,-0.88,-0.47,0.19,-48.05,-120.9,152.63,483

15246,-0.52,-0.43,-0.01,-20.47,-63.93,98.74,481

15266,-0.72,-0.19,-0.01,3.59,-15.94,56.86,481

15286,-0.76,0.08,-0.01,-3.39,2.93,22.89,481

15306,-0.7,0.09,-0.08,-40.99,14.18,-36.37,481

15326,-0.64,-0.25,0.25,-62.6,33.17,-64.9,481

15346,-2.0,-0.13,0.78,-25.59,30.41,45.5,481

15366,-1.18,-0.15,0.07,-42.0,-13.16,-35.47,484

15386,-0.37,-0.39,-0.06,-49.21,26.87,-72.15,481

15407,-0.7,-0.42,0.03,-53.21,20.03,-21.89,481

15426,-1.07,-0.38,-0.15,-23.71,21.65,-3.74,481

15447,-1.0,-0.16,0.01,-34.4,16.26,-15.47,486

15466,-0.91,-0.49,0.04,-38.43,22.93,-34.65,484

15486,-0.8,-0.59,-0.06,-18.2,20.16,-18.24,484

15506,-0.85,-0.5,-0.05,12.53,32.56,-18.87,485

15526,-1.07,-0.25,-0.09,16.75,26.07,-11.53,485

15546,-0.9,-0.11,-0.13,-17.48,5.17,-11.88,484

15566,-0.86,-0.37,-0.01,-39.66,8.52,-12.28,485

15586,-0.92,-0.58,0.08,-20.18,9.2,-14.02,485

15606,-0.82,-0.51,0.05,0.14,11.2,2.55,485

15626,-0.89,-0.36,0.01,8.15,14.49,1.88,484

15646,-0.95,-0.29,-0.01,11.14,12.71,3.82,485

15666,-0.9,-0.29,0.0,4.18,6.32,7.53,485

15686,-0.88,-0.23,0.08,-7.76,3.81,9.17,484

15707,-0.93,-0.38,0.09,-9.11,3.58,4.4,485

15726,-0.88,-0.39,0.05,3.45,7.26,0.75,485

15747,-0.9,-0.26,0.0,13.56,9.63,4.22,484

15766,-0.9,-0.24,0.02,13.79,9.07,13.78,484

15787,-1.0,-0.15,-0.09,7.18,7.19,9.4,484

15806,-1.03,-0.16,-0.17,0.05,1.66,0.47,484

15826,-0.93,-0.24,0.03,-1.27,-5.33,-5.15,483

15846,-0.89,-0.23,0.12,-1.68,-2.89,-13.23,483

15866,-0.94,-0.21,0.05,-4.35,-2.34,3.23,484

15886,-0.95,-0.18,0.04,-5.77,-3.77,-0.91,483

15906,-0.95,-0.18,0.05,-1.54,-2.17,-2.79,483

15926,-0.93,-0.18,0.06,-4.79,-5.06,-9.63,483

15946,-0.87,-0.28,0.09,-5.83,-1.9,-4.87,484

15966,-0.91,-0.28,0.08,0.66,1.36,2.26,483

15986,-0.97,-0.19,0.04,1.68,-0.25,-2.63,483

16006,-0.87,-0.22,0.03,-5.71,-3.24,-7.28,483

16026,-0.87,-0.37,0.06,-4.43,0.62,-10.36,483

16047,-0.92,-0.34,0.05,2.93,1.97,-9.49,483

16066,-0.9,-0.28,0.03,4.38,1.81,-1.95,483

16087,-0.95,-0.3,0.09,-0.55,0.87,-0.75,483

16106,-0.9,-0.32,0.04,-6.5,-3.33,-12.55,483

16126,-0.87,-0.36,0.02,-4.43,-2.52,-5.77,483

16146,-0.88,-0.37,0.04,2.98,0.06,0.9,483

16166,-0.88,-0.36,0.05,7.42,1.48,-4.72,483

16186,-0.9,-0.31,0.05,8.09,3.11,11.66,483

16206,-0.94,-0.28,0.05,8.03,3.16,10.19,483

16226,-0.93,-0.23,0.02,6.03,0.76,5.44,482

16246,-0.92,-0.25,0.05,3.69,0.65,-10.94,482

16266,-0.9,-0.31,0.05,2.12,-1.35,-1.48,482

16286,-0.89,-0.3,0.06,-0.86,-1.38,-6.25,482

16306,-0.91,-0.29,0.06,-0.98,-1.47,-9.19,482

